start_mouse.x,start_mouse.y,start_mouse.leftButton,start_mouse.midButton,start_mouse.rightButton,start_mouse.clicked_name,digitLoop.thisRepN,digitLoop.thisTrialN,digitLoop.thisN,digitLoop.thisIndex,digitLoop.ran,participant,session,date,expName,psychopyVersion,OS,frameRate,textbox.text,correct,mouse.x,mouse.y,mouse.leftButton,mouse.midButton,mouse.rightButton,mouse.clicked_name,trials.thisRepN,trials.thisTrialN,trials.thisN,trials.thisIndex,trials.ran,digitSpan,digits,blocks.thisRepN,blocks.thisTrialN,blocks.thisN,blocks.thisIndex,blocks.ran,condition_file
-0.028027455,-0.407030185,1,0,0,cont_button,0,0,0,0,1,0,001,2022-04-27_16h08.47.017,Digit Span Task,2021.2.3,Linux x86_64,60.0132029,,,,,,,,,,,,,,,,,,,,,
,,,,,,1,0,1,0,1,0,001,2022-04-27_16h08.47.017,Digit Span Task,2021.2.3,Linux x86_64,60.0132029,,,,,,,,,,,,,,,,,,,,,
,,,,,,2,0,2,0,1,0,001,2022-04-27_16h08.47.017,Digit Span Task,2021.2.3,Linux x86_64,60.0132029,,,,,,,,,,,,,,,,,,,,,
,,,,,,,,,,,0,001,2022-04-27_16h08.47.017,Digit Span Task,2021.2.3,Linux x86_64,60.0132029,127,0,-0.02807045,-0.406671683,1,0,0,cont_button,0,0,0,0,1,3,217,,,,,,
,,,,,,0,0,0,0,1,0,001,2022-04-27_16h08.47.017,Digit Span Task,2021.2.3,Linux x86_64,60.0132029,,,,,,,,,,,,,,,,,,,,,
,,,,,,1,0,1,0,1,0,001,2022-04-27_16h08.47.017,Digit Span Task,2021.2.3,Linux x86_64,60.0132029,,,,,,,,,,,,,,,,,,,,,
,,,,,,2,0,2,0,1,0,001,2022-04-27_16h08.47.017,Digit Span Task,2021.2.3,Linux x86_64,60.0132029,,,,,,,,,,,,,,,,,,,,,
,,,,,,,,,,,0,001,2022-04-27_16h08.47.017,Digit Span Task,2021.2.3,Linux x86_64,60.0132029,486,1,-0.030546983,-0.393279235,1,0,0,cont_button,0,1,1,1,1,3,486,,,,,,
,,,,,,0,0,0,0,1,0,001,2022-04-27_16h08.47.017,Digit Span Task,2021.2.3,Linux x86_64,60.0132029,,,,,,,,,,,,,,,,,,,,,
,,,,,,1,0,1,0,1,0,001,2022-04-27_16h08.47.017,Digit Span Task,2021.2.3,Linux x86_64,60.0132029,,,,,,,,,,,,,,,,,,,,,
,,,,,,2,0,2,0,1,0,001,2022-04-27_16h08.47.017,Digit Span Task,2021.2.3,Linux x86_64,60.0132029,,,,,,,,,,,,,,,,,,,,,
,,,,,,,,,,,0,001,2022-04-27_16h08.47.017,Digit Span Task,2021.2.3,Linux x86_64,60.0132029,760,1,0.096922557,-0.42662708,1,0,0,cont_button,0,2,2,2,1,3,760,,,,,,
,,,,,,,,,,,0,001,2022-04-27_16h08.47.017,Digit Span Task,2021.2.3,Linux x86_64,60.0132029,,,,,,,,,,,,,,,,0,0,0,0,1,three.xlsx
,,,,,,0,0,0,0,1,0,001,2022-04-27_16h08.47.017,Digit Span Task,2021.2.3,Linux x86_64,60.0132029,,,,,,,,,,,,,,,,,,,,,
,,,,,,1,0,1,0,1,0,001,2022-04-27_16h08.47.017,Digit Span Task,2021.2.3,Linux x86_64,60.0132029,,,,,,,,,,,,,,,,,,,,,
,,,,,,2,0,2,0,1,0,001,2022-04-27_16h08.47.017,Digit Span Task,2021.2.3,Linux x86_64,60.0132029,,,,,,,,,,,,,,,,,,,,,
,,,,,,3,0,3,0,1,0,001,2022-04-27_16h08.47.017,Digit Span Task,2021.2.3,Linux x86_64,60.0132029,,,,,,,,,,,,,,,,,,,,,
,,,,,,,,,,,0,001,2022-04-27_16h08.47.017,Digit Span Task,2021.2.3,Linux x86_64,60.0132029,3141,1,0.102041801,-0.424957911,1,0,0,cont_button,0,0,0,0,1,4,3141,,,,,,
,,,,,,0,0,0,0,1,0,001,2022-04-27_16h08.47.017,Digit Span Task,2021.2.3,Linux x86_64,60.0132029,,,,,,,,,,,,,,,,,,,,,
,,,,,,1,0,1,0,1,0,001,2022-04-27_16h08.47.017,Digit Span Task,2021.2.3,Linux x86_64,60.0132029,,,,,,,,,,,,,,,,,,,,,
,,,,,,2,0,2,0,1,0,001,2022-04-27_16h08.47.017,Digit Span Task,2021.2.3,Linux x86_64,60.0132029,,,,,,,,,,,,,,,,,,,,,
,,,,,,3,0,3,0,1,0,001,2022-04-27_16h08.47.017,Digit Span Task,2021.2.3,Linux x86_64,60.0132029,,,,,,,,,,,,,,,,,,,,,
,,,,,,,,,,,0,001,2022-04-27_16h08.47.017,Digit Span Task,2021.2.3,Linux x86_64,60.0132029,3651,0,0.04341205,-0.388898134,1,0,0,cont_button,0,1,1,1,1,4,6351,,,,,,
,,,,,,0,0,0,0,1,0,001,2022-04-27_16h08.47.017,Digit Span Task,2021.2.3,Linux x86_64,60.0132029,,,,,,,,,,,,,,,,,,,,,
,,,,,,1,0,1,0,1,0,001,2022-04-27_16h08.47.017,Digit Span Task,2021.2.3,Linux x86_64,60.0132029,,,,,,,,,,,,,,,,,,,,,
,,,,,,2,0,2,0,1,0,001,2022-04-27_16h08.47.017,Digit Span Task,2021.2.3,Linux x86_64,60.0132029,,,,,,,,,,,,,,,,,,,,,
,,,,,,3,0,3,0,1,0,001,2022-04-27_16h08.47.017,Digit Span Task,2021.2.3,Linux x86_64,60.0132029,,,,,,,,,,,,,,,,,,,,,
,,,,,,,,,,,0,001,2022-04-27_16h08.47.017,Digit Span Task,2021.2.3,Linux x86_64,60.0132029,2391,1,0.060888926,-0.410086791,1,0,0,cont_button,0,2,2,2,1,4,2391,,,,,,
,,,,,,,,,,,0,001,2022-04-27_16h08.47.017,Digit Span Task,2021.2.3,Linux x86_64,60.0132029,,,,,,,,,,,,,,,,0,1,1,1,1,four.xlsx
,,,,,,0,0,0,0,1,0,001,2022-04-27_16h08.47.017,Digit Span Task,2021.2.3,Linux x86_64,60.0132029,,,,,,,,,,,,,,,,,,,,,
,,,,,,1,0,1,0,1,0,001,2022-04-27_16h08.47.017,Digit Span Task,2021.2.3,Linux x86_64,60.0132029,,,,,,,,,,,,,,,,,,,,,
,,,,,,2,0,2,0,1,0,001,2022-04-27_16h08.47.017,Digit Span Task,2021.2.3,Linux x86_64,60.0132029,,,,,,,,,,,,,,,,,,,,,
,,,,,,3,0,3,0,1,0,001,2022-04-27_16h08.47.017,Digit Span Task,2021.2.3,Linux x86_64,60.0132029,,,,,,,,,,,,,,,,,,,,,
,,,,,,4,0,4,0,1,0,001,2022-04-27_16h08.47.017,Digit Span Task,2021.2.3,Linux x86_64,60.0132029,,,,,,,,,,,,,,,,,,,,,
,,,,,,,,,,,0,001,2022-04-27_16h08.47.017,Digit Span Task,2021.2.3,Linux x86_64,60.0132029,14932,1,0.020379861,-0.404828628,1,0,0,cont_button,0,0,0,0,1,5,14932,,,,,,
,,,,,,0,0,0,0,1,0,001,2022-04-27_16h08.47.017,Digit Span Task,2021.2.3,Linux x86_64,60.0132029,,,,,,,,,,,,,,,,,,,,,
,,,,,,1,0,1,0,1,0,001,2022-04-27_16h08.47.017,Digit Span Task,2021.2.3,Linux x86_64,60.0132029,,,,,,,,,,,,,,,,,,,,,
,,,,,,2,0,2,0,1,0,001,2022-04-27_16h08.47.017,Digit Span Task,2021.2.3,Linux x86_64,60.0132029,,,,,,,,,,,,,,,,,,,,,
,,,,,,3,0,3,0,1,0,001,2022-04-27_16h08.47.017,Digit Span Task,2021.2.3,Linux x86_64,60.0132029,,,,,,,,,,,,,,,,,,,,,
,,,,,,4,0,4,0,1,0,001,2022-04-27_16h08.47.017,Digit Span Task,2021.2.3,Linux x86_64,60.0132029,,,,,,,,,,,,,,,,,,,,,
,,,,,,,,,,,0,001,2022-04-27_16h08.47.017,Digit Span Task,2021.2.3,Linux x86_64,60.0132029,10646,1,0.073878845,-0.406893492,1,0,0,cont_button,0,1,1,1,1,5,10646,,,,,,
,,,,,,0,0,0,0,1,0,001,2022-04-27_16h08.47.017,Digit Span Task,2021.2.3,Linux x86_64,60.0132029,,,,,,,,,,,,,,,,,,,,,
,,,,,,1,0,1,0,1,0,001,2022-04-27_16h08.47.017,Digit Span Task,2021.2.3,Linux x86_64,60.0132029,,,,,,,,,,,,,,,,,,,,,
,,,,,,2,0,2,0,1,0,001,2022-04-27_16h08.47.017,Digit Span Task,2021.2.3,Linux x86_64,60.0132029,,,,,,,,,,,,,,,,,,,,,
,,,,,,3,0,3,0,1,0,001,2022-04-27_16h08.47.017,Digit Span Task,2021.2.3,Linux x86_64,60.0132029,,,,,,,,,,,,,,,,,,,,,
,,,,,,4,0,4,0,1,0,001,2022-04-27_16h08.47.017,Digit Span Task,2021.2.3,Linux x86_64,60.0132029,,,,,,,,,,,,,,,,,,,,,
,,,,,,,,,,,0,001,2022-04-27_16h08.47.017,Digit Span Task,2021.2.3,Linux x86_64,60.0132029,74832,1,-0.103899002,-0.423272292,1,0,0,cont_button,0,2,2,2,1,5,74832,,,,,,
,,,,,,,,,,,0,001,2022-04-27_16h08.47.017,Digit Span Task,2021.2.3,Linux x86_64,60.0132029,,,,,,,,,,,,,,,,0,2,2,2,1,five.xlsx
,,,,,,0,0,0,0,1,0,001,2022-04-27_16h08.47.017,Digit Span Task,2021.2.3,Linux x86_64,60.0132029,,,,,,,,,,,,,,,,,,,,,
,,,,,,1,0,1,0,1,0,001,2022-04-27_16h08.47.017,Digit Span Task,2021.2.3,Linux x86_64,60.0132029,,,,,,,,,,,,,,,,,,,,,
,,,,,,2,0,2,0,1,0,001,2022-04-27_16h08.47.017,Digit Span Task,2021.2.3,Linux x86_64,60.0132029,,,,,,,,,,,,,,,,,,,,,
,,,,,,3,0,3,0,1,0,001,2022-04-27_16h08.47.017,Digit Span Task,2021.2.3,Linux x86_64,60.0132029,,,,,,,,,,,,,,,,,,,,,
,,,,,,4,0,4,0,1,0,001,2022-04-27_16h08.47.017,Digit Span Task,2021.2.3,Linux x86_64,60.0132029,,,,,,,,,,,,,,,,,,,,,
,,,,,,5,0,5,0,1,0,001,2022-04-27_16h08.47.017,Digit Span Task,2021.2.3,Linux x86_64,60.0132029,,,,,,,,,,,,,,,,,,,,,
,,,,,,,,,,,0,001,2022-04-27_16h08.47.017,Digit Span Task,2021.2.3,Linux x86_64,60.0132029,93464,0,-0.10143741,-0.405276378,1,0,0,cont_button,0,0,0,0,1,6,934648,,,,,,
,,,,,,0,0,0,0,1,0,001,2022-04-27_16h08.47.017,Digit Span Task,2021.2.3,Linux x86_64,60.0132029,,,,,,,,,,,,,,,,,,,,,
,,,,,,1,0,1,0,1,0,001,2022-04-27_16h08.47.017,Digit Span Task,2021.2.3,Linux x86_64,60.0132029,,,,,,,,,,,,,,,,,,,,,
,,,,,,2,0,2,0,1,0,001,2022-04-27_16h08.47.017,Digit Span Task,2021.2.3,Linux x86_64,60.0132029,,,,,,,,,,,,,,,,,,,,,
,,,,,,3,0,3,0,1,0,001,2022-04-27_16h08.47.017,Digit Span Task,2021.2.3,Linux x86_64,60.0132029,,,,,,,,,,,,,,,,,,,,,
,,,,,,4,0,4,0,1,0,001,2022-04-27_16h08.47.017,Digit Span Task,2021.2.3,Linux x86_64,60.0132029,,,,,,,,,,,,,,,,,,,,,
,,,,,,5,0,5,0,1,0,001,2022-04-27_16h08.47.017,Digit Span Task,2021.2.3,Linux x86_64,60.0132029,,,,,,,,,,,,,,,,,,,,,
,,,,,,,,,,,0,001,2022-04-27_16h08.47.017,Digit Span Task,2021.2.3,Linux x86_64,60.0132029,14790,0,0.10686175,-0.404378017,1,0,0,cont_button,0,1,1,1,1,6,179390,,,,,,
,,,,,,0,0,0,0,1,0,001,2022-04-27_16h08.47.017,Digit Span Task,2021.2.3,Linux x86_64,60.0132029,,,,,,,,,,,,,,,,,,,,,
,,,,,,1,0,1,0,1,0,001,2022-04-27_16h08.47.017,Digit Span Task,2021.2.3,Linux x86_64,60.0132029,,,,,,,,,,,,,,,,,,,,,
,,,,,,2,0,2,0,1,0,001,2022-04-27_16h08.47.017,Digit Span Task,2021.2.3,Linux x86_64,60.0132029,,,,,,,,,,,,,,,,,,,,,
,,,,,,3,0,3,0,1,0,001,2022-04-27_16h08.47.017,Digit Span Task,2021.2.3,Linux x86_64,60.0132029,,,,,,,,,,,,,,,,,,,,,
,,,,,,4,0,4,0,1,0,001,2022-04-27_16h08.47.017,Digit Span Task,2021.2.3,Linux x86_64,60.0132029,,,,,,,,,,,,,,,,,,,,,
,,,,,,5,0,5,0,1,0,001,2022-04-27_16h08.47.017,Digit Span Task,2021.2.3,Linux x86_64,60.0132029,,,,,,,,,,,,,,,,,,,,,
,,,,,,,,,,,0,001,2022-04-27_16h08.47.017,Digit Span Task,2021.2.3,Linux x86_64,60.0132029,408288,1,0.071775595,-0.410393874,1,0,0,cont_button,0,2,2,2,1,6,408288,,,,,,
,,,,,,,,,,,0,001,2022-04-27_16h08.47.017,Digit Span Task,2021.2.3,Linux x86_64,60.0132029,,,,,,,,,,,,,,,,0,3,3,3,1,six.xlsx
,,,,,,0,0,0,0,1,0,001,2022-04-27_16h08.47.017,Digit Span Task,2021.2.3,Linux x86_64,60.0132029,,,,,,,,,,,,,,,,,,,,,
,,,,,,1,0,1,0,1,0,001,2022-04-27_16h08.47.017,Digit Span Task,2021.2.3,Linux x86_64,60.0132029,,,,,,,,,,,,,,,,,,,,,
,,,,,,2,0,2,0,1,0,001,2022-04-27_16h08.47.017,Digit Span Task,2021.2.3,Linux x86_64,60.0132029,,,,,,,,,,,,,,,,,,,,,
,,,,,,3,0,3,0,1,0,001,2022-04-27_16h08.47.017,Digit Span Task,2021.2.3,Linux x86_64,60.0132029,,,,,,,,,,,,,,,,,,,,,
,,,,,,4,0,4,0,1,0,001,2022-04-27_16h08.47.017,Digit Span Task,2021.2.3,Linux x86_64,60.0132029,,,,,,,,,,,,,,,,,,,,,
,,,,,,5,0,5,0,1,0,001,2022-04-27_16h08.47.017,Digit Span Task,2021.2.3,Linux x86_64,60.0132029,,,,,,,,,,,,,,,,,,,,,
,,,,,,6,0,6,0,1,0,001,2022-04-27_16h08.47.017,Digit Span Task,2021.2.3,Linux x86_64,60.0132029,,,,,,,,,,,,,,,,,,,,,
,,,,,,,,,,,0,001,2022-04-27_16h08.47.017,Digit Span Task,2021.2.3,Linux x86_64,60.0132029,,0,0.068956852,-0.376308362,1,0,0,cont_button,0,0,0,0,1,7,4498237,,,,,,
,,,,,,0,0,0,0,1,0,001,2022-04-27_16h08.47.017,Digit Span Task,2021.2.3,Linux x86_64,60.0132029,,,,,,,,,,,,,,,,,,,,,
,,,,,,1,0,1,0,1,0,001,2022-04-27_16h08.47.017,Digit Span Task,2021.2.3,Linux x86_64,60.0132029,,,,,,,,,,,,,,,,,,,,,
,,,,,,2,0,2,0,1,0,001,2022-04-27_16h08.47.017,Digit Span Task,2021.2.3,Linux x86_64,60.0132029,,,,,,,,,,,,,,,,,,,,,
,,,,,,3,0,3,0,1,0,001,2022-04-27_16h08.47.017,Digit Span Task,2021.2.3,Linux x86_64,60.0132029,,,,,,,,,,,,,,,,,,,,,
,,,,,,4,0,4,0,1,0,001,2022-04-27_16h08.47.017,Digit Span Task,2021.2.3,Linux x86_64,60.0132029,,,,,,,,,,,,,,,,,,,,,
,,,,,,5,0,5,0,1,0,001,2022-04-27_16h08.47.017,Digit Span Task,2021.2.3,Linux x86_64,60.0132029,,,,,,,,,,,,,,,,,,,,,
,,,,,,6,0,6,0,1,0,001,2022-04-27_16h08.47.017,Digit Span Task,2021.2.3,Linux x86_64,60.0132029,,,,,,,,,,,,,,,,,,,,,
,,,,,,,,,,,0,001,2022-04-27_16h08.47.017,Digit Span Task,2021.2.3,Linux x86_64,60.0132029,254337,0,-0.116720517,-0.402158578,1,0,0,cont_button,0,1,1,1,1,7,2544371,,,,,,
,,,,,,0,0,0,0,1,0,001,2022-04-27_16h08.47.017,Digit Span Task,2021.2.3,Linux x86_64,60.0132029,,,,,,,,,,,,,,,,,,,,,
,,,,,,1,0,1,0,1,0,001,2022-04-27_16h08.47.017,Digit Span Task,2021.2.3,Linux x86_64,60.0132029,,,,,,,,,,,,,,,,,,,,,
,,,,,,2,0,2,0,1,0,001,2022-04-27_16h08.47.017,Digit Span Task,2021.2.3,Linux x86_64,60.0132029,,,,,,,,,,,,,,,,,,,,,
,,,,,,3,0,3,0,1,0,001,2022-04-27_16h08.47.017,Digit Span Task,2021.2.3,Linux x86_64,60.0132029,,,,,,,,,,,,,,,,,,,,,
,,,,,,4,0,4,0,1,0,001,2022-04-27_16h08.47.017,Digit Span Task,2021.2.3,Linux x86_64,60.0132029,,,,,,,,,,,,,,,,,,,,,
,,,,,,5,0,5,0,1,0,001,2022-04-27_16h08.47.017,Digit Span Task,2021.2.3,Linux x86_64,60.0132029,,,,,,,,,,,,,,,,,,,,,
,,,,,,6,0,6,0,1,0,001,2022-04-27_16h08.47.017,Digit Span Task,2021.2.3,Linux x86_64,60.0132029,,,,,,,,,,,,,,,,,,,,,
,,,,,,,,,,,0,001,2022-04-27_16h08.47.017,Digit Span Task,2021.2.3,Linux x86_64,60.0132029,885788,0,-0.05760177,-0.419375261,1,0,0,cont_button,0,2,2,2,1,7,8875085,,,,,,
,,,,,,,,,,,0,001,2022-04-27_16h08.47.017,Digit Span Task,2021.2.3,Linux x86_64,60.0132029,,,,,,,,,,,,,,,,0,4,4,4,1,seven.xlsx
,,,,,,0,0,0,0,1,0,001,2022-04-27_16h08.47.017,Digit Span Task,2021.2.3,Linux x86_64,60.0132029,,,,,,,,,,,,,,,,,,,,,
,,,,,,1,0,1,0,1,0,001,2022-04-27_16h08.47.017,Digit Span Task,2021.2.3,Linux x86_64,60.0132029,,,,,,,,,,,,,,,,,,,,,
,,,,,,2,0,2,0,1,0,001,2022-04-27_16h08.47.017,Digit Span Task,2021.2.3,Linux x86_64,60.0132029,,,,,,,,,,,,,,,,,,,,,
,,,,,,3,0,3,0,1,0,001,2022-04-27_16h08.47.017,Digit Span Task,2021.2.3,Linux x86_64,60.0132029,,,,,,,,,,,,,,,,,,,,,
,,,,,,4,0,4,0,1,0,001,2022-04-27_16h08.47.017,Digit Span Task,2021.2.3,Linux x86_64,60.0132029,,,,,,,,,,,,,,,,,,,,,
,,,,,,5,0,5,0,1,0,001,2022-04-27_16h08.47.017,Digit Span Task,2021.2.3,Linux x86_64,60.0132029,,,,,,,,,,,,,,,,,,,,,
,,,,,,6,0,6,0,1,0,001,2022-04-27_16h08.47.017,Digit Span Task,2021.2.3,Linux x86_64,60.0132029,,,,,,,,,,,,,,,,,,,,,
,,,,,,7,0,7,0,1,0,001,2022-04-27_16h08.47.017,Digit Span Task,2021.2.3,Linux x86_64,60.0132029,,,,,,,,,,,,,,,,,,,,,
,,,,,,,,,,,0,001,2022-04-27_16h08.47.017,Digit Span Task,2021.2.3,Linux x86_64,60.0132029,463992,0,-0.05458196,-0.384630044,1,0,0,cont_button,0,0,0,0,1,8,46229408,,,,,,
,,,,,,0,0,0,0,1,0,001,2022-04-27_16h08.47.017,Digit Span Task,2021.2.3,Linux x86_64,60.0132029,,,,,,,,,,,,,,,,,,,,,
,,,,,,1,0,1,0,1,0,001,2022-04-27_16h08.47.017,Digit Span Task,2021.2.3,Linux x86_64,60.0132029,,,,,,,,,,,,,,,,,,,,,
,,,,,,2,0,2,0,1,0,001,2022-04-27_16h08.47.017,Digit Span Task,2021.2.3,Linux x86_64,60.0132029,,,,,,,,,,,,,,,,,,,,,
,,,,,,3,0,3,0,1,0,001,2022-04-27_16h08.47.017,Digit Span Task,2021.2.3,Linux x86_64,60.0132029,,,,,,,,,,,,,,,,,,,,,
,,,,,,4,0,4,0,1,0,001,2022-04-27_16h08.47.017,Digit Span Task,2021.2.3,Linux x86_64,60.0132029,,,,,,,,,,,,,,,,,,,,,
,,,,,,5,0,5,0,1,0,001,2022-04-27_16h08.47.017,Digit Span Task,2021.2.3,Linux x86_64,60.0132029,,,,,,,,,,,,,,,,,,,,,
,,,,,,6,0,6,0,1,0,001,2022-04-27_16h08.47.017,Digit Span Task,2021.2.3,Linux x86_64,60.0132029,,,,,,,,,,,,,,,,,,,,,
,,,,,,7,0,7,0,1,0,001,2022-04-27_16h08.47.017,Digit Span Task,2021.2.3,Linux x86_64,60.0132029,,,,,,,,,,,,,,,,,,,,,
,,,,,,,,,,,0,001,2022-04-27_16h08.47.017,Digit Span Task,2021.2.3,Linux x86_64,60.0132029,790678,0,-0.039883773,-0.415334304,1,0,0,cont_button,0,1,1,1,1,8,70967882,,,,,,
,,,,,,0,0,0,0,1,0,001,2022-04-27_16h08.47.017,Digit Span Task,2021.2.3,Linux x86_64,60.0132029,,,,,,,,,,,,,,,,,,,,,
,,,,,,1,0,1,0,1,0,001,2022-04-27_16h08.47.017,Digit Span Task,2021.2.3,Linux x86_64,60.0132029,,,,,,,,,,,,,,,,,,,,,
,,,,,,2,0,2,0,1,0,001,2022-04-27_16h08.47.017,Digit Span Task,2021.2.3,Linux x86_64,60.0132029,,,,,,,,,,,,,,,,,,,,,
,,,,,,3,0,3,0,1,0,001,2022-04-27_16h08.47.017,Digit Span Task,2021.2.3,Linux x86_64,60.0132029,,,,,,,,,,,,,,,,,,,,,
,,,,,,4,0,4,0,1,0,001,2022-04-27_16h08.47.017,Digit Span Task,2021.2.3,Linux x86_64,60.0132029,,,,,,,,,,,,,,,,,,,,,
,,,,,,5,0,5,0,1,0,001,2022-04-27_16h08.47.017,Digit Span Task,2021.2.3,Linux x86_64,60.0132029,,,,,,,,,,,,,,,,,,,,,
,,,,,,6,0,6,0,1,0,001,2022-04-27_16h08.47.017,Digit Span Task,2021.2.3,Linux x86_64,60.0132029,,,,,,,,,,,,,,,,,,,,,
,,,,,,7,0,7,0,1,0,001,2022-04-27_16h08.47.017,Digit Span Task,2021.2.3,Linux x86_64,60.0132029,,,,,,,,,,,,,,,,,,,,,
,,,,,,,,,,,0,001,2022-04-27_16h08.47.017,Digit Span Task,2021.2.3,Linux x86_64,60.0132029,27319230,0,0.089279731,-0.424335718,1,0,0,cont_button,0,2,2,2,1,8,27139320,,,,,,
,,,,,,,,,,,0,001,2022-04-27_16h08.47.017,Digit Span Task,2021.2.3,Linux x86_64,60.0132029,,,,,,,,,,,,,,,,0,5,5,5,1,eight.xlsx
,,,,,,0,0,0,0,1,0,001,2022-04-27_16h08.47.017,Digit Span Task,2021.2.3,Linux x86_64,60.0132029,,,,,,,,,,,,,,,,,,,,,
,,,,,,1,0,1,0,1,0,001,2022-04-27_16h08.47.017,Digit Span Task,2021.2.3,Linux x86_64,60.0132029,,,,,,,,,,,,,,,,,,,,,
,,,,,,2,0,2,0,1,0,001,2022-04-27_16h08.47.017,Digit Span Task,2021.2.3,Linux x86_64,60.0132029,,,,,,,,,,,,,,,,,,,,,
,,,,,,3,0,3,0,1,0,001,2022-04-27_16h08.47.017,Digit Span Task,2021.2.3,Linux x86_64,60.0132029,,,,,,,,,,,,,,,,,,,,,
,,,,,,4,0,4,0,1,0,001,2022-04-27_16h08.47.017,Digit Span Task,2021.2.3,Linux x86_64,60.0132029,,,,,,,,,,,,,,,,,,,,,
,,,,,,5,0,5,0,1,0,001,2022-04-27_16h08.47.017,Digit Span Task,2021.2.3,Linux x86_64,60.0132029,,,,,,,,,,,,,,,,,,,,,
,,,,,,6,0,6,0,1,0,001,2022-04-27_16h08.47.017,Digit Span Task,2021.2.3,Linux x86_64,60.0132029,,,,,,,,,,,,,,,,,,,,,
,,,,,,7,0,7,0,1,0,001,2022-04-27_16h08.47.017,Digit Span Task,2021.2.3,Linux x86_64,60.0132029,,,,,,,,,,,,,,,,,,,,,
,,,,,,8,0,8,0,1,0,001,2022-04-27_16h08.47.017,Digit Span Task,2021.2.3,Linux x86_64,60.0132029,,,,,,,,,,,,,,,,,,,,,
,,,,,,,,,,,0,001,2022-04-27_16h08.47.017,Digit Span Task,2021.2.3,Linux x86_64,60.0132029,,0,0.066018105,-0.39321653,1,0,0,cont_button,0,0,0,0,1,9,368373442,,,,,,
,,,,,,0,0,0,0,1,0,001,2022-04-27_16h08.47.017,Digit Span Task,2021.2.3,Linux x86_64,60.0132029,,,,,,,,,,,,,,,,,,,,,
,,,,,,1,0,1,0,1,0,001,2022-04-27_16h08.47.017,Digit Span Task,2021.2.3,Linux x86_64,60.0132029,,,,,,,,,,,,,,,,,,,,,
,,,,,,2,0,2,0,1,0,001,2022-04-27_16h08.47.017,Digit Span Task,2021.2.3,Linux x86_64,60.0132029,,,,,,,,,,,,,,,,,,,,,
,,,,,,3,0,3,0,1,0,001,2022-04-27_16h08.47.017,Digit Span Task,2021.2.3,Linux x86_64,60.0132029,,,,,,,,,,,,,,,,,,,,,
,,,,,,4,0,4,0,1,0,001,2022-04-27_16h08.47.017,Digit Span Task,2021.2.3,Linux x86_64,60.0132029,,,,,,,,,,,,,,,,,,,,,
,,,,,,5,0,5,0,1,0,001,2022-04-27_16h08.47.017,Digit Span Task,2021.2.3,Linux x86_64,60.0132029,,,,,,,,,,,,,,,,,,,,,
,,,,,,6,0,6,0,1,0,001,2022-04-27_16h08.47.017,Digit Span Task,2021.2.3,Linux x86_64,60.0132029,,,,,,,,,,,,,,,,,,,,,
,,,,,,7,0,7,0,1,0,001,2022-04-27_16h08.47.017,Digit Span Task,2021.2.3,Linux x86_64,60.0132029,,,,,,,,,,,,,,,,,,,,,
,,,,,,8,0,8,0,1,0,001,2022-04-27_16h08.47.017,Digit Span Task,2021.2.3,Linux x86_64,60.0132029,,,,,,,,,,,,,,,,,,,,,
,,,,,,,,,,,0,001,2022-04-27_16h08.47.017,Digit Span Task,2021.2.3,Linux x86_64,60.0132029,,0,-0.023957809,-0.374575138,1,0,0,cont_button,0,1,1,1,1,9,576270919,,,,,,
,,,,,,0,0,0,0,1,0,001,2022-04-27_16h08.47.017,Digit Span Task,2021.2.3,Linux x86_64,60.0132029,,,,,,,,,,,,,,,,,,,,,
,,,,,,1,0,1,0,1,0,001,2022-04-27_16h08.47.017,Digit Span Task,2021.2.3,Linux x86_64,60.0132029,,,,,,,,,,,,,,,,,,,,,
,,,,,,2,0,2,0,1,0,001,2022-04-27_16h08.47.017,Digit Span Task,2021.2.3,Linux x86_64,60.0132029,,,,,,,,,,,,,,,,,,,,,
,,,,,,3,0,3,0,1,0,001,2022-04-27_16h08.47.017,Digit Span Task,2021.2.3,Linux x86_64,60.0132029,,,,,,,,,,,,,,,,,,,,,
,,,,,,4,0,4,0,1,0,001,2022-04-27_16h08.47.017,Digit Span Task,2021.2.3,Linux x86_64,60.0132029,,,,,,,,,,,,,,,,,,,,,
,,,,,,5,0,5,0,1,0,001,2022-04-27_16h08.47.017,Digit Span Task,2021.2.3,Linux x86_64,60.0132029,,,,,,,,,,,,,,,,,,,,,
,,,,,,6,0,6,0,1,0,001,2022-04-27_16h08.47.017,Digit Span Task,2021.2.3,Linux x86_64,60.0132029,,,,,,,,,,,,,,,,,,,,,
,,,,,,7,0,7,0,1,0,001,2022-04-27_16h08.47.017,Digit Span Task,2021.2.3,Linux x86_64,60.0132029,,,,,,,,,,,,,,,,,,,,,
,,,,,,8,0,8,0,1,0,001,2022-04-27_16h08.47.017,Digit Span Task,2021.2.3,Linux x86_64,60.0132029,,,,,,,,,,,,,,,,,,,,,
,,,,,,,,,,,0,001,2022-04-27_16h08.47.017,Digit Span Task,2021.2.3,Linux x86_64,60.0132029,886659,0,0.02792875,-0.408931255,1,0,0,cont_button,0,2,2,2,1,9,688655957,,,,,,
,,,,,,,,,,,0,001,2022-04-27_16h08.47.017,Digit Span Task,2021.2.3,Linux x86_64,60.0132029,,,,,,,,,,,,,,,,0,6,6,6,1,nine.xlsx
,,,,,,0,0,0,0,1,0,001,2022-04-27_16h08.47.017,Digit Span Task,2021.2.3,Linux x86_64,60.0132029,,,,,,,,,,,,,,,,,,,,,
,,,,,,1,0,1,0,1,0,001,2022-04-27_16h08.47.017,Digit Span Task,2021.2.3,Linux x86_64,60.0132029,,,,,,,,,,,,,,,,,,,,,
,,,,,,2,0,2,0,1,0,001,2022-04-27_16h08.47.017,Digit Span Task,2021.2.3,Linux x86_64,60.0132029,,,,,,,,,,,,,,,,,,,,,
,,,,,,3,0,3,0,1,0,001,2022-04-27_16h08.47.017,Digit Span Task,2021.2.3,Linux x86_64,60.0132029,,,,,,,,,,,,,,,,,,,,,
,,,,,,4,0,4,0,1,0,001,2022-04-27_16h08.47.017,Digit Span Task,2021.2.3,Linux x86_64,60.0132029,,,,,,,,,,,,,,,,,,,,,
,,,,,,5,0,5,0,1,0,001,2022-04-27_16h08.47.017,Digit Span Task,2021.2.3,Linux x86_64,60.0132029,,,,,,,,,,,,,,,,,,,,,
,,,,,,6,0,6,0,1,0,001,2022-04-27_16h08.47.017,Digit Span Task,2021.2.3,Linux x86_64,60.0132029,,,,,,,,,,,,,,,,,,,,,
,,,,,,7,0,7,0,1,0,001,2022-04-27_16h08.47.017,Digit Span Task,2021.2.3,Linux x86_64,60.0132029,,,,,,,,,,,,,,,,,,,,,
,,,,,,8,0,8,0,1,0,001,2022-04-27_16h08.47.017,Digit Span Task,2021.2.3,Linux x86_64,60.0132029,,,,,,,,,,,,,,,,,,,,,
,,,,,,9,0,9,0,1,0,001,2022-04-27_16h08.47.017,Digit Span Task,2021.2.3,Linux x86_64,60.0132029,,,,,,,,,,,,,,,,,,,,,
,,,,,,,,,,,0,001,2022-04-27_16h08.47.017,Digit Span Task,2021.2.3,Linux x86_64,60.0132029,6483190,0,-0.02795887,-0.402178605,1,0,0,cont_button,0,0,0,0,1,10,6432900801,,,,,,
,,,,,,0,0,0,0,1,0,001,2022-04-27_16h08.47.017,Digit Span Task,2021.2.3,Linux x86_64,60.0132029,,,,,,,,,,,,,,,,,,,,,
,,,,,,1,0,1,0,1,0,001,2022-04-27_16h08.47.017,Digit Span Task,2021.2.3,Linux x86_64,60.0132029,,,,,,,,,,,,,,,,,,,,,
,,,,,,2,0,2,0,1,0,001,2022-04-27_16h08.47.017,Digit Span Task,2021.2.3,Linux x86_64,60.0132029,,,,,,,,,,,,,,,,,,,,,
,,,,,,3,0,3,0,1,0,001,2022-04-27_16h08.47.017,Digit Span Task,2021.2.3,Linux x86_64,60.0132029,,,,,,,,,,,,,,,,,,,,,
,,,,,,4,0,4,0,1,0,001,2022-04-27_16h08.47.017,Digit Span Task,2021.2.3,Linux x86_64,60.0132029,,,,,,,,,,,,,,,,,,,,,
,,,,,,5,0,5,0,1,0,001,2022-04-27_16h08.47.017,Digit Span Task,2021.2.3,Linux x86_64,60.0132029,,,,,,,,,,,,,,,,,,,,,
,,,,,,6,0,6,0,1,0,001,2022-04-27_16h08.47.017,Digit Span Task,2021.2.3,Linux x86_64,60.0132029,,,,,,,,,,,,,,,,,,,,,
,,,,,,7,0,7,0,1,0,001,2022-04-27_16h08.47.017,Digit Span Task,2021.2.3,Linux x86_64,60.0132029,,,,,,,,,,,,,,,,,,,,,
,,,,,,8,0,8,0,1,0,001,2022-04-27_16h08.47.017,Digit Span Task,2021.2.3,Linux x86_64,60.0132029,,,,,,,,,,,,,,,,,,,,,
,,,,,,9,0,9,0,1,0,001,2022-04-27_16h08.47.017,Digit Span Task,2021.2.3,Linux x86_64,60.0132029,,,,,,,,,,,,,,,,,,,,,
,,,,,,,,,,,0,001,2022-04-27_16h08.47.017,Digit Span Task,2021.2.3,Linux x86_64,60.0132029,846721,0,-0.00981458,-0.396471183,1,0,0,cont_button,0,1,1,1,1,10,8467348927,,,,,,
,,,,,,0,0,0,0,1,0,001,2022-04-27_16h08.47.017,Digit Span Task,2021.2.3,Linux x86_64,60.0132029,,,,,,,,,,,,,,,,,,,,,
,,,,,,1,0,1,0,1,0,001,2022-04-27_16h08.47.017,Digit Span Task,2021.2.3,Linux x86_64,60.0132029,,,,,,,,,,,,,,,,,,,,,
,,,,,,2,0,2,0,1,0,001,2022-04-27_16h08.47.017,Digit Span Task,2021.2.3,Linux x86_64,60.0132029,,,,,,,,,,,,,,,,,,,,,
,,,,,,3,0,3,0,1,0,001,2022-04-27_16h08.47.017,Digit Span Task,2021.2.3,Linux x86_64,60.0132029,,,,,,,,,,,,,,,,,,,,,
,,,,,,4,0,4,0,1,0,001,2022-04-27_16h08.47.017,Digit Span Task,2021.2.3,Linux x86_64,60.0132029,,,,,,,,,,,,,,,,,,,,,
,,,,,,5,0,5,0,1,0,001,2022-04-27_16h08.47.017,Digit Span Task,2021.2.3,Linux x86_64,60.0132029,,,,,,,,,,,,,,,,,,,,,
,,,,,,6,0,6,0,1,0,001,2022-04-27_16h08.47.017,Digit Span Task,2021.2.3,Linux x86_64,60.0132029,,,,,,,,,,,,,,,,,,,,,
,,,,,,7,0,7,0,1,0,001,2022-04-27_16h08.47.017,Digit Span Task,2021.2.3,Linux x86_64,60.0132029,,,,,,,,,,,,,,,,,,,,,
,,,,,,8,0,8,0,1,0,001,2022-04-27_16h08.47.017,Digit Span Task,2021.2.3,Linux x86_64,60.0132029,,,,,,,,,,,,,,,,,,,,,
,,,,,,9,0,9,0,1,0,001,2022-04-27_16h08.47.017,Digit Span Task,2021.2.3,Linux x86_64,60.0132029,,,,,,,,,,,,,,,,,,,,,
,,,,,,,,,,,0,001,2022-04-27_16h08.47.017,Digit Span Task,2021.2.3,Linux x86_64,60.0132029,4412568,0,0.056773822,-0.414377451,1,0,0,cont_button,0,2,2,2,1,10,4184946413,,,,,,
,,,,,,,,,,,0,001,2022-04-27_16h08.47.017,Digit Span Task,2021.2.3,Linux x86_64,60.0132029,,,,,,,,,,,,,,,,0,7,7,7,1,ten.xlsx
,,,,,,0,0,0,0,1,0,001,2022-04-27_16h08.47.017,Digit Span Task,2021.2.3,Linux x86_64,60.0132029,,,,,,,,,,,,,,,,,,,,,
,,,,,,1,0,1,0,1,0,001,2022-04-27_16h08.47.017,Digit Span Task,2021.2.3,Linux x86_64,60.0132029,,,,,,,,,,,,,,,,,,,,,
,,,,,,2,0,2,0,1,0,001,2022-04-27_16h08.47.017,Digit Span Task,2021.2.3,Linux x86_64,60.0132029,,,,,,,,,,,,,,,,,,,,,
,,,,,,3,0,3,0,1,0,001,2022-04-27_16h08.47.017,Digit Span Task,2021.2.3,Linux x86_64,60.0132029,,,,,,,,,,,,,,,,,,,,,
,,,,,,4,0,4,0,1,0,001,2022-04-27_16h08.47.017,Digit Span Task,2021.2.3,Linux x86_64,60.0132029,,,,,,,,,,,,,,,,,,,,,
,,,,,,5,0,5,0,1,0,001,2022-04-27_16h08.47.017,Digit Span Task,2021.2.3,Linux x86_64,60.0132029,,,,,,,,,,,,,,,,,,,,,
,,,,,,6,0,6,0,1,0,001,2022-04-27_16h08.47.017,Digit Span Task,2021.2.3,Linux x86_64,60.0132029,,,,,,,,,,,,,,,,,,,,,
,,,,,,7,0,7,0,1,0,001,2022-04-27_16h08.47.017,Digit Span Task,2021.2.3,Linux x86_64,60.0132029,,,,,,,,,,,,,,,,,,,,,
,,,,,,8,0,8,0,1,0,001,2022-04-27_16h08.47.017,Digit Span Task,2021.2.3,Linux x86_64,60.0132029,,,,,,,,,,,,,,,,,,,,,
,,,,,,9,0,9,0,1,0,001,2022-04-27_16h08.47.017,Digit Span Task,2021.2.3,Linux x86_64,60.0132029,,,,,,,,,,,,,,,,,,,,,
,,,,,,10,0,10,0,1,0,001,2022-04-27_16h08.47.017,Digit Span Task,2021.2.3,Linux x86_64,60.0132029,,,,,,,,,,,,,,,,,,,,,
,,,,,,,,,,,0,001,2022-04-27_16h08.47.017,Digit Span Task,2021.2.3,Linux x86_64,60.0132029,4736298,0,0.094618638,-0.383034388,1,0,0,cont_button,0,0,0,0,1,11,73290740563,,,,,,
,,,,,,0,0,0,0,1,0,001,2022-04-27_16h08.47.017,Digit Span Task,2021.2.3,Linux x86_64,60.0132029,,,,,,,,,,,,,,,,,,,,,
,,,,,,1,0,1,0,1,0,001,2022-04-27_16h08.47.017,Digit Span Task,2021.2.3,Linux x86_64,60.0132029,,,,,,,,,,,,,,,,,,,,,
,,,,,,2,0,2,0,1,0,001,2022-04-27_16h08.47.017,Digit Span Task,2021.2.3,Linux x86_64,60.0132029,,,,,,,,,,,,,,,,,,,,,
,,,,,,3,0,3,0,1,0,001,2022-04-27_16h08.47.017,Digit Span Task,2021.2.3,Linux x86_64,60.0132029,,,,,,,,,,,,,,,,,,,,,
,,,,,,4,0,4,0,1,0,001,2022-04-27_16h08.47.017,Digit Span Task,2021.2.3,Linux x86_64,60.0132029,,,,,,,,,,,,,,,,,,,,,
,,,,,,5,0,5,0,1,0,001,2022-04-27_16h08.47.017,Digit Span Task,2021.2.3,Linux x86_64,60.0132029,,,,,,,,,,,,,,,,,,,,,
,,,,,,6,0,6,0,1,0,001,2022-04-27_16h08.47.017,Digit Span Task,2021.2.3,Linux x86_64,60.0132029,,,,,,,,,,,,,,,,,,,,,
,,,,,,7,0,7,0,1,0,001,2022-04-27_16h08.47.017,Digit Span Task,2021.2.3,Linux x86_64,60.0132029,,,,,,,,,,,,,,,,,,,,,
,,,,,,8,0,8,0,1,0,001,2022-04-27_16h08.47.017,Digit Span Task,2021.2.3,Linux x86_64,60.0132029,,,,,,,,,,,,,,,,,,,,,
,,,,,,9,0,9,0,1,0,001,2022-04-27_16h08.47.017,Digit Span Task,2021.2.3,Linux x86_64,60.0132029,,,,,,,,,,,,,,,,,,,,,
,,,,,,10,0,10,0,1,0,001,2022-04-27_16h08.47.017,Digit Span Task,2021.2.3,Linux x86_64,60.0132029,,,,,,,,,,,,,,,,,,,,,
,,,,,,,,,,,0,001,2022-04-27_16h08.47.017,Digit Span Task,2021.2.3,Linux x86_64,60.0132029,"743257328
",0,-0.072555542,-0.403156201,1,0,0,cont_button,0,1,1,1,1,11,74948772224,,,,,,
,,,,,,0,0,0,0,1,0,001,2022-04-27_16h08.47.017,Digit Span Task,2021.2.3,Linux x86_64,60.0132029,,,,,,,,,,,,,,,,,,,,,
,,,,,,1,0,1,0,1,0,001,2022-04-27_16h08.47.017,Digit Span Task,2021.2.3,Linux x86_64,60.0132029,,,,,,,,,,,,,,,,,,,,,
,,,,,,2,0,2,0,1,0,001,2022-04-27_16h08.47.017,Digit Span Task,2021.2.3,Linux x86_64,60.0132029,,,,,,,,,,,,,,,,,,,,,
,,,,,,3,0,3,0,1,0,001,2022-04-27_16h08.47.017,Digit Span Task,2021.2.3,Linux x86_64,60.0132029,,,,,,,,,,,,,,,,,,,,,
,,,,,,4,0,4,0,1,0,001,2022-04-27_16h08.47.017,Digit Span Task,2021.2.3,Linux x86_64,60.0132029,,,,,,,,,,,,,,,,,,,,,
,,,,,,5,0,5,0,1,0,001,2022-04-27_16h08.47.017,Digit Span Task,2021.2.3,Linux x86_64,60.0132029,,,,,,,,,,,,,,,,,,,,,
,,,,,,6,0,6,0,1,0,001,2022-04-27_16h08.47.017,Digit Span Task,2021.2.3,Linux x86_64,60.0132029,,,,,,,,,,,,,,,,,,,,,
,,,,,,7,0,7,0,1,0,001,2022-04-27_16h08.47.017,Digit Span Task,2021.2.3,Linux x86_64,60.0132029,,,,,,,,,,,,,,,,,,,,,
,,,,,,8,0,8,0,1,0,001,2022-04-27_16h08.47.017,Digit Span Task,2021.2.3,Linux x86_64,60.0132029,,,,,,,,,,,,,,,,,,,,,
,,,,,,9,0,9,0,1,0,001,2022-04-27_16h08.47.017,Digit Span Task,2021.2.3,Linux x86_64,60.0132029,,,,,,,,,,,,,,,,,,,,,
,,,,,,10,0,10,0,1,0,001,2022-04-27_16h08.47.017,Digit Span Task,2021.2.3,Linux x86_64,60.0132029,,,,,,,,,,,,,,,,,,,,,
,,,,,,,,,,,0,001,2022-04-27_16h08.47.017,Digit Span Task,2021.2.3,Linux x86_64,60.0132029,22765422,0,0.057840745,-0.401477973,1,0,0,cont_button,0,2,2,2,1,11,97084622072,,,,,,
,,,,,,,,,,,0,001,2022-04-27_16h08.47.017,Digit Span Task,2021.2.3,Linux x86_64,60.0132029,,,,,,,,,,,,,,,,0,8,8,8,1,eleven.xlsx
,,,,,,0,0,0,0,1,0,001,2022-04-27_16h08.47.017,Digit Span Task,2021.2.3,Linux x86_64,60.0132029,,,,,,,,,,,,,,,,,,,,,
,,,,,,1,0,1,0,1,0,001,2022-04-27_16h08.47.017,Digit Span Task,2021.2.3,Linux x86_64,60.0132029,,,,,,,,,,,,,,,,,,,,,
,,,,,,2,0,2,0,1,0,001,2022-04-27_16h08.47.017,Digit Span Task,2021.2.3,Linux x86_64,60.0132029,,,,,,,,,,,,,,,,,,,,,
,,,,,,3,0,3,0,1,0,001,2022-04-27_16h08.47.017,Digit Span Task,2021.2.3,Linux x86_64,60.0132029,,,,,,,,,,,,,,,,,,,,,
,,,,,,4,0,4,0,1,0,001,2022-04-27_16h08.47.017,Digit Span Task,2021.2.3,Linux x86_64,60.0132029,,,,,,,,,,,,,,,,,,,,,
,,,,,,5,0,5,0,1,0,001,2022-04-27_16h08.47.017,Digit Span Task,2021.2.3,Linux x86_64,60.0132029,,,,,,,,,,,,,,,,,,,,,
,,,,,,6,0,6,0,1,0,001,2022-04-27_16h08.47.017,Digit Span Task,2021.2.3,Linux x86_64,60.0132029,,,,,,,,,,,,,,,,,,,,,
,,,,,,7,0,7,0,1,0,001,2022-04-27_16h08.47.017,Digit Span Task,2021.2.3,Linux x86_64,60.0132029,,,,,,,,,,,,,,,,,,,,,
,,,,,,8,0,8,0,1,0,001,2022-04-27_16h08.47.017,Digit Span Task,2021.2.3,Linux x86_64,60.0132029,,,,,,,,,,,,,,,,,,,,,
,,,,,,9,0,9,0,1,0,001,2022-04-27_16h08.47.017,Digit Span Task,2021.2.3,Linux x86_64,60.0132029,,,,,,,,,,,,,,,,,,,,,
,,,,,,10,0,10,0,1,0,001,2022-04-27_16h08.47.017,Digit Span Task,2021.2.3,Linux x86_64,60.0132029,,,,,,,,,,,,,,,,,,,,,
,,,,,,11,0,11,0,1,0,001,2022-04-27_16h08.47.017,Digit Span Task,2021.2.3,Linux x86_64,60.0132029,,,,,,,,,,,,,,,,,,,,,
,,,,,,,,,,,0,001,2022-04-27_16h08.47.017,Digit Span Task,2021.2.3,Linux x86_64,60.0132029,6132543,0,0.129143,-0.411798318,1,0,0,cont_button,0,0,0,0,1,12,6.81346E+11,,,,,,
,,,,,,0,0,0,0,1,0,001,2022-04-27_16h08.47.017,Digit Span Task,2021.2.3,Linux x86_64,60.0132029,,,,,,,,,,,,,,,,,,,,,
,,,,,,1,0,1,0,1,0,001,2022-04-27_16h08.47.017,Digit Span Task,2021.2.3,Linux x86_64,60.0132029,,,,,,,,,,,,,,,,,,,,,
,,,,,,2,0,2,0,1,0,001,2022-04-27_16h08.47.017,Digit Span Task,2021.2.3,Linux x86_64,60.0132029,,,,,,,,,,,,,,,,,,,,,
,,,,,,3,0,3,0,1,0,001,2022-04-27_16h08.47.017,Digit Span Task,2021.2.3,Linux x86_64,60.0132029,,,,,,,,,,,,,,,,,,,,,
,,,,,,4,0,4,0,1,0,001,2022-04-27_16h08.47.017,Digit Span Task,2021.2.3,Linux x86_64,60.0132029,,,,,,,,,,,,,,,,,,,,,
,,,,,,5,0,5,0,1,0,001,2022-04-27_16h08.47.017,Digit Span Task,2021.2.3,Linux x86_64,60.0132029,,,,,,,,,,,,,,,,,,,,,
,,,,,,6,0,6,0,1,0,001,2022-04-27_16h08.47.017,Digit Span Task,2021.2.3,Linux x86_64,60.0132029,,,,,,,,,,,,,,,,,,,,,
,,,,,,7,0,7,0,1,0,001,2022-04-27_16h08.47.017,Digit Span Task,2021.2.3,Linux x86_64,60.0132029,,,,,,,,,,,,,,,,,,,,,
,,,,,,8,0,8,0,1,0,001,2022-04-27_16h08.47.017,Digit Span Task,2021.2.3,Linux x86_64,60.0132029,,,,,,,,,,,,,,,,,,,,,
,,,,,,9,0,9,0,1,0,001,2022-04-27_16h08.47.017,Digit Span Task,2021.2.3,Linux x86_64,60.0132029,,,,,,,,,,,,,,,,,,,,,
,,,,,,10,0,10,0,1,0,001,2022-04-27_16h08.47.017,Digit Span Task,2021.2.3,Linux x86_64,60.0132029,,,,,,,,,,,,,,,,,,,,,
,,,,,,11,0,11,0,1,0,001,2022-04-27_16h08.47.017,Digit Span Task,2021.2.3,Linux x86_64,60.0132029,,,,,,,,,,,,,,,,,,,,,
,,,,,,,,,,,0,001,2022-04-27_16h08.47.017,Digit Span Task,2021.2.3,Linux x86_64,60.0132029,73246533,0,0.111791213,-0.397285382,1,0,0,cont_button,0,1,1,1,1,12,8.7238E+11,,,,,,
,,,,,,0,0,0,0,1,0,001,2022-04-27_16h08.47.017,Digit Span Task,2021.2.3,Linux x86_64,60.0132029,,,,,,,,,,,,,,,,,,,,,
,,,,,,1,0,1,0,1,0,001,2022-04-27_16h08.47.017,Digit Span Task,2021.2.3,Linux x86_64,60.0132029,,,,,,,,,,,,,,,,,,,,,
,,,,,,2,0,2,0,1,0,001,2022-04-27_16h08.47.017,Digit Span Task,2021.2.3,Linux x86_64,60.0132029,,,,,,,,,,,,,,,,,,,,,
,,,,,,3,0,3,0,1,0,001,2022-04-27_16h08.47.017,Digit Span Task,2021.2.3,Linux x86_64,60.0132029,,,,,,,,,,,,,,,,,,,,,
,,,,,,4,0,4,0,1,0,001,2022-04-27_16h08.47.017,Digit Span Task,2021.2.3,Linux x86_64,60.0132029,,,,,,,,,,,,,,,,,,,,,
,,,,,,5,0,5,0,1,0,001,2022-04-27_16h08.47.017,Digit Span Task,2021.2.3,Linux x86_64,60.0132029,,,,,,,,,,,,,,,,,,,,,
,,,,,,6,0,6,0,1,0,001,2022-04-27_16h08.47.017,Digit Span Task,2021.2.3,Linux x86_64,60.0132029,,,,,,,,,,,,,,,,,,,,,
,,,,,,7,0,7,0,1,0,001,2022-04-27_16h08.47.017,Digit Span Task,2021.2.3,Linux x86_64,60.0132029,,,,,,,,,,,,,,,,,,,,,
,,,,,,8,0,8,0,1,0,001,2022-04-27_16h08.47.017,Digit Span Task,2021.2.3,Linux x86_64,60.0132029,,,,,,,,,,,,,,,,,,,,,
,,,,,,9,0,9,0,1,0,001,2022-04-27_16h08.47.017,Digit Span Task,2021.2.3,Linux x86_64,60.0132029,,,,,,,,,,,,,,,,,,,,,
,,,,,,10,0,10,0,1,0,001,2022-04-27_16h08.47.017,Digit Span Task,2021.2.3,Linux x86_64,60.0132029,,,,,,,,,,,,,,,,,,,,,
,,,,,,11,0,11,0,1,0,001,2022-04-27_16h08.47.017,Digit Span Task,2021.2.3,Linux x86_64,60.0132029,,,,,,,,,,,,,,,,,,,,,
,,,,,,,,,,,0,001,2022-04-27_16h08.47.017,Digit Span Task,2021.2.3,Linux x86_64,60.0132029,2410721,0,0.073526144,-0.398515781,1,0,0,cont_button,0,2,2,2,1,12,2.41072E+11,,,,,,
,,,,,,,,,,,0,001,2022-04-27_16h08.47.017,Digit Span Task,2021.2.3,Linux x86_64,60.0132029,,,,,,,,,,,,,,,,0,9,9,9,1,twelve.xlsx
,,,,,,0,0,0,0,1,0,001,2022-04-27_16h08.47.017,Digit Span Task,2021.2.3,Linux x86_64,60.0132029,,,,,,,,,,,,,,,,,,,,,
,,,,,,1,0,1,0,1,0,001,2022-04-27_16h08.47.017,Digit Span Task,2021.2.3,Linux x86_64,60.0132029,,,,,,,,,,,,,,,,,,,,,
,,,,,,2,0,2,0,1,0,001,2022-04-27_16h08.47.017,Digit Span Task,2021.2.3,Linux x86_64,60.0132029,,,,,,,,,,,,,,,,,,,,,
,,,,,,,,,,,0,001,2022-04-27_16h08.47.017,Digit Span Task,2021.2.3,Linux x86_64,60.0132029,217,1,0.105119705,-0.384473721,1,0,0,cont_button,0,0,0,0,1,3,217,,,,,,
,,,,,,0,0,0,0,1,0,001,2022-04-27_16h08.47.017,Digit Span Task,2021.2.3,Linux x86_64,60.0132029,,,,,,,,,,,,,,,,,,,,,
,,,,,,1,0,1,0,1,0,001,2022-04-27_16h08.47.017,Digit Span Task,2021.2.3,Linux x86_64,60.0132029,,,,,,,,,,,,,,,,,,,,,
,,,,,,2,0,2,0,1,0,001,2022-04-27_16h08.47.017,Digit Span Task,2021.2.3,Linux x86_64,60.0132029,,,,,,,,,,,,,,,,,,,,,
,,,,,,,,,,,0,001,2022-04-27_16h08.47.017,Digit Span Task,2021.2.3,Linux x86_64,60.0132029,486,1,-0.013610601,-0.394748926,1,0,0,cont_button,0,1,1,1,1,3,486,,,,,,
,,,,,,0,0,0,0,1,0,001,2022-04-27_16h08.47.017,Digit Span Task,2021.2.3,Linux x86_64,60.0132029,,,,,,,,,,,,,,,,,,,,,
,,,,,,1,0,1,0,1,0,001,2022-04-27_16h08.47.017,Digit Span Task,2021.2.3,Linux x86_64,60.0132029,,,,,,,,,,,,,,,,,,,,,
,,,,,,2,0,2,0,1,0,001,2022-04-27_16h08.47.017,Digit Span Task,2021.2.3,Linux x86_64,60.0132029,,,,,,,,,,,,,,,,,,,,,
,,,,,,,,,,,0,001,2022-04-27_16h08.47.017,Digit Span Task,2021.2.3,Linux x86_64,60.0132029,760,1,0.087030252,-0.390053431,1,0,0,cont_button,0,2,2,2,1,3,760,,,,,,
,,,,,,,,,,,0,001,2022-04-27_16h08.47.017,Digit Span Task,2021.2.3,Linux x86_64,60.0132029,,,,,,,,,,,,,,,,1,0,10,0,1,three.xlsx
,,,,,,0,0,0,0,1,0,001,2022-04-27_16h08.47.017,Digit Span Task,2021.2.3,Linux x86_64,60.0132029,,,,,,,,,,,,,,,,,,,,,
,,,,,,1,0,1,0,1,0,001,2022-04-27_16h08.47.017,Digit Span Task,2021.2.3,Linux x86_64,60.0132029,,,,,,,,,,,,,,,,,,,,,
,,,,,,2,0,2,0,1,0,001,2022-04-27_16h08.47.017,Digit Span Task,2021.2.3,Linux x86_64,60.0132029,,,,,,,,,,,,,,,,,,,,,
,,,,,,3,0,3,0,1,0,001,2022-04-27_16h08.47.017,Digit Span Task,2021.2.3,Linux x86_64,60.0132029,,,,,,,,,,,,,,,,,,,,,
,,,,,,,,,,,0,001,2022-04-27_16h08.47.017,Digit Span Task,2021.2.3,Linux x86_64,60.0132029,3411,0,0.025822322,-0.387512922,1,0,0,cont_button,0,0,0,0,1,4,3141,,,,,,
,,,,,,0,0,0,0,1,0,001,2022-04-27_16h08.47.017,Digit Span Task,2021.2.3,Linux x86_64,60.0132029,,,,,,,,,,,,,,,,,,,,,
,,,,,,1,0,1,0,1,0,001,2022-04-27_16h08.47.017,Digit Span Task,2021.2.3,Linux x86_64,60.0132029,,,,,,,,,,,,,,,,,,,,,
,,,,,,2,0,2,0,1,0,001,2022-04-27_16h08.47.017,Digit Span Task,2021.2.3,Linux x86_64,60.0132029,,,,,,,,,,,,,,,,,,,,,
,,,,,,3,0,3,0,1,0,001,2022-04-27_16h08.47.017,Digit Span Task,2021.2.3,Linux x86_64,60.0132029,,,,,,,,,,,,,,,,,,,,,
,,,,,,,,,,,0,001,2022-04-27_16h08.47.017,Digit Span Task,2021.2.3,Linux x86_64,60.0132029,6351,1,0.013757467,-0.422818581,1,0,0,cont_button,0,1,1,1,1,4,6351,,,,,,
,,,,,,0,0,0,0,1,0,001,2022-04-27_16h08.47.017,Digit Span Task,2021.2.3,Linux x86_64,60.0132029,,,,,,,,,,,,,,,,,,,,,
,,,,,,1,0,1,0,1,0,001,2022-04-27_16h08.47.017,Digit Span Task,2021.2.3,Linux x86_64,60.0132029,,,,,,,,,,,,,,,,,,,,,
,,,,,,2,0,2,0,1,0,001,2022-04-27_16h08.47.017,Digit Span Task,2021.2.3,Linux x86_64,60.0132029,,,,,,,,,,,,,,,,,,,,,
,,,,,,3,0,3,0,1,0,001,2022-04-27_16h08.47.017,Digit Span Task,2021.2.3,Linux x86_64,60.0132029,,,,,,,,,,,,,,,,,,,,,
,,,,,,,,,,,0,001,2022-04-27_16h08.47.017,Digit Span Task,2021.2.3,Linux x86_64,60.0132029,2391,1,0.135132631,-0.403786341,1,0,0,cont_button,0,2,2,2,1,4,2391,,,,,,
,,,,,,,,,,,0,001,2022-04-27_16h08.47.017,Digit Span Task,2021.2.3,Linux x86_64,60.0132029,,,,,,,,,,,,,,,,1,1,11,1,1,four.xlsx
,,,,,,0,0,0,0,1,0,001,2022-04-27_16h08.47.017,Digit Span Task,2021.2.3,Linux x86_64,60.0132029,,,,,,,,,,,,,,,,,,,,,
,,,,,,1,0,1,0,1,0,001,2022-04-27_16h08.47.017,Digit Span Task,2021.2.3,Linux x86_64,60.0132029,,,,,,,,,,,,,,,,,,,,,
,,,,,,2,0,2,0,1,0,001,2022-04-27_16h08.47.017,Digit Span Task,2021.2.3,Linux x86_64,60.0132029,,,,,,,,,,,,,,,,,,,,,
,,,,,,3,0,3,0,1,0,001,2022-04-27_16h08.47.017,Digit Span Task,2021.2.3,Linux x86_64,60.0132029,,,,,,,,,,,,,,,,,,,,,
,,,,,,4,0,4,0,1,0,001,2022-04-27_16h08.47.017,Digit Span Task,2021.2.3,Linux x86_64,60.0132029,,,,,,,,,,,,,,,,,,,,,
,,,,,,,,,,,0,001,2022-04-27_16h08.47.017,Digit Span Task,2021.2.3,Linux x86_64,60.0132029,14932,1,-0.028742154,-0.414379756,1,0,0,cont_button,0,0,0,0,1,5,14932,,,,,,
,,,,,,0,0,0,0,1,0,001,2022-04-27_16h08.47.017,Digit Span Task,2021.2.3,Linux x86_64,60.0132029,,,,,,,,,,,,,,,,,,,,,
,,,,,,1,0,1,0,1,0,001,2022-04-27_16h08.47.017,Digit Span Task,2021.2.3,Linux x86_64,60.0132029,,,,,,,,,,,,,,,,,,,,,
,,,,,,2,0,2,0,1,0,001,2022-04-27_16h08.47.017,Digit Span Task,2021.2.3,Linux x86_64,60.0132029,,,,,,,,,,,,,,,,,,,,,
,,,,,,3,0,3,0,1,0,001,2022-04-27_16h08.47.017,Digit Span Task,2021.2.3,Linux x86_64,60.0132029,,,,,,,,,,,,,,,,,,,,,
,,,,,,4,0,4,0,1,0,001,2022-04-27_16h08.47.017,Digit Span Task,2021.2.3,Linux x86_64,60.0132029,,,,,,,,,,,,,,,,,,,,,
,,,,,,,,,,,0,001,2022-04-27_16h08.47.017,Digit Span Task,2021.2.3,Linux x86_64,60.0132029,10646,1,-0.032284657,-0.414891481,1,0,0,cont_button,0,1,1,1,1,5,10646,,,,,,
,,,,,,0,0,0,0,1,0,001,2022-04-27_16h08.47.017,Digit Span Task,2021.2.3,Linux x86_64,60.0132029,,,,,,,,,,,,,,,,,,,,,
,,,,,,1,0,1,0,1,0,001,2022-04-27_16h08.47.017,Digit Span Task,2021.2.3,Linux x86_64,60.0132029,,,,,,,,,,,,,,,,,,,,,
,,,,,,2,0,2,0,1,0,001,2022-04-27_16h08.47.017,Digit Span Task,2021.2.3,Linux x86_64,60.0132029,,,,,,,,,,,,,,,,,,,,,
,,,,,,3,0,3,0,1,0,001,2022-04-27_16h08.47.017,Digit Span Task,2021.2.3,Linux x86_64,60.0132029,,,,,,,,,,,,,,,,,,,,,
,,,,,,4,0,4,0,1,0,001,2022-04-27_16h08.47.017,Digit Span Task,2021.2.3,Linux x86_64,60.0132029,,,,,,,,,,,,,,,,,,,,,
,,,,,,,,,,,0,001,2022-04-27_16h08.47.017,Digit Span Task,2021.2.3,Linux x86_64,60.0132029,74832,1,0.085087061,-0.38160483,1,0,0,cont_button,0,2,2,2,1,5,74832,,,,,,
,,,,,,,,,,,0,001,2022-04-27_16h08.47.017,Digit Span Task,2021.2.3,Linux x86_64,60.0132029,,,,,,,,,,,,,,,,1,2,12,2,1,five.xlsx
,,,,,,0,0,0,0,1,0,001,2022-04-27_16h08.47.017,Digit Span Task,2021.2.3,Linux x86_64,60.0132029,,,,,,,,,,,,,,,,,,,,,
,,,,,,1,0,1,0,1,0,001,2022-04-27_16h08.47.017,Digit Span Task,2021.2.3,Linux x86_64,60.0132029,,,,,,,,,,,,,,,,,,,,,
,,,,,,2,0,2,0,1,0,001,2022-04-27_16h08.47.017,Digit Span Task,2021.2.3,Linux x86_64,60.0132029,,,,,,,,,,,,,,,,,,,,,
,,,,,,3,0,3,0,1,0,001,2022-04-27_16h08.47.017,Digit Span Task,2021.2.3,Linux x86_64,60.0132029,,,,,,,,,,,,,,,,,,,,,
,,,,,,4,0,4,0,1,0,001,2022-04-27_16h08.47.017,Digit Span Task,2021.2.3,Linux x86_64,60.0132029,,,,,,,,,,,,,,,,,,,,,
,,,,,,5,0,5,0,1,0,001,2022-04-27_16h08.47.017,Digit Span Task,2021.2.3,Linux x86_64,60.0132029,,,,,,,,,,,,,,,,,,,,,
,,,,,,,,,,,0,001,2022-04-27_16h08.47.017,Digit Span Task,2021.2.3,Linux x86_64,60.0132029,"93468
",0,0.054029226,-0.388335387,1,0,0,cont_button,0,0,0,0,1,6,934648,,,,,,
,,,,,,0,0,0,0,1,0,001,2022-04-27_16h08.47.017,Digit Span Task,2021.2.3,Linux x86_64,60.0132029,,,,,,,,,,,,,,,,,,,,,
,,,,,,1,0,1,0,1,0,001,2022-04-27_16h08.47.017,Digit Span Task,2021.2.3,Linux x86_64,60.0132029,,,,,,,,,,,,,,,,,,,,,
,,,,,,2,0,2,0,1,0,001,2022-04-27_16h08.47.017,Digit Span Task,2021.2.3,Linux x86_64,60.0132029,,,,,,,,,,,,,,,,,,,,,
,,,,,,3,0,3,0,1,0,001,2022-04-27_16h08.47.017,Digit Span Task,2021.2.3,Linux x86_64,60.0132029,,,,,,,,,,,,,,,,,,,,,
,,,,,,4,0,4,0,1,0,001,2022-04-27_16h08.47.017,Digit Span Task,2021.2.3,Linux x86_64,60.0132029,,,,,,,,,,,,,,,,,,,,,
,,,,,,5,0,5,0,1,0,001,2022-04-27_16h08.47.017,Digit Span Task,2021.2.3,Linux x86_64,60.0132029,,,,,,,,,,,,,,,,,,,,,
,,,,,,,,,,,0,001,2022-04-27_16h08.47.017,Digit Span Task,2021.2.3,Linux x86_64,60.0132029,179301,0,0.113789876,-0.39901344,1,0,0,cont_button,0,1,1,1,1,6,179390,,,,,,
,,,,,,0,0,0,0,1,0,001,2022-04-27_16h08.47.017,Digit Span Task,2021.2.3,Linux x86_64,60.0132029,,,,,,,,,,,,,,,,,,,,,
,,,,,,1,0,1,0,1,0,001,2022-04-27_16h08.47.017,Digit Span Task,2021.2.3,Linux x86_64,60.0132029,,,,,,,,,,,,,,,,,,,,,
,,,,,,2,0,2,0,1,0,001,2022-04-27_16h08.47.017,Digit Span Task,2021.2.3,Linux x86_64,60.0132029,,,,,,,,,,,,,,,,,,,,,
,,,,,,3,0,3,0,1,0,001,2022-04-27_16h08.47.017,Digit Span Task,2021.2.3,Linux x86_64,60.0132029,,,,,,,,,,,,,,,,,,,,,
,,,,,,4,0,4,0,1,0,001,2022-04-27_16h08.47.017,Digit Span Task,2021.2.3,Linux x86_64,60.0132029,,,,,,,,,,,,,,,,,,,,,
,,,,,,5,0,5,0,1,0,001,2022-04-27_16h08.47.017,Digit Span Task,2021.2.3,Linux x86_64,60.0132029,,,,,,,,,,,,,,,,,,,,,
