start_mouse.x,start_mouse.y,start_mouse.leftButton,start_mouse.midButton,start_mouse.rightButton,start_mouse.clicked_name,digitLoop.thisRepN,digitLoop.thisTrialN,digitLoop.thisN,digitLoop.thisIndex,digitLoop.ran,participant,session,date,expName,psychopyVersion,OS,frameRate,textbox.text,correct,mouse.x,mouse.y,mouse.leftButton,mouse.midButton,mouse.rightButton,mouse.clicked_name,trials.thisRepN,trials.thisTrialN,trials.thisN,trials.thisIndex,trials.ran,digitSpan,digits,blocks.thisRepN,blocks.thisTrialN,blocks.thisN,blocks.thisIndex,blocks.ran,condition_file
0.002427975,-0.393664757,1,0,0,cont_button,0,0,0,0,1,0,001,2022-05-05_10h28.03.520,Digit Span Task,2021.2.3,Linux x86_64,60.0528465,,,,,,,,,,,,,,,,,,,,,
,,,,,,1,0,1,0,1,0,001,2022-05-05_10h28.03.520,Digit Span Task,2021.2.3,Linux x86_64,60.0528465,,,,,,,,,,,,,,,,,,,,,
,,,,,,2,0,2,0,1,0,001,2022-05-05_10h28.03.520,Digit Span Task,2021.2.3,Linux x86_64,60.0528465,,,,,,,,,,,,,,,,,,,,,
,,,,,,,,,,,0,001,2022-05-05_10h28.03.520,Digit Span Task,2021.2.3,Linux x86_64,60.0528465,,0,0.005055348,-0.397605975,1,0,0,cont_button,0,0,0,0,1,3,217,,,,,,
,,,,,,0,0,0,0,1,0,001,2022-05-05_10h28.03.520,Digit Span Task,2021.2.3,Linux x86_64,60.0528465,,,,,,,,,,,,,,,,,,,,,
,,,,,,1,0,1,0,1,0,001,2022-05-05_10h28.03.520,Digit Span Task,2021.2.3,Linux x86_64,60.0528465,,,,,,,,,,,,,,,,,,,,,
,,,,,,2,0,2,0,1,0,001,2022-05-05_10h28.03.520,Digit Span Task,2021.2.3,Linux x86_64,60.0528465,,,,,,,,,,,,,,,,,,,,,
,,,,,,,,,,,0,001,2022-05-05_10h28.03.520,Digit Span Task,2021.2.3,Linux x86_64,60.0528465,486,1,0.097388983,-0.395231167,1,0,0,cont_button,0,1,1,1,1,3,486,,,,,,
,,,,,,0,0,0,0,1,0,001,2022-05-05_10h28.03.520,Digit Span Task,2021.2.3,Linux x86_64,60.0528465,,,,,,,,,,,,,,,,,,,,,
,,,,,,1,0,1,0,1,0,001,2022-05-05_10h28.03.520,Digit Span Task,2021.2.3,Linux x86_64,60.0528465,,,,,,,,,,,,,,,,,,,,,
,,,,,,2,0,2,0,1,0,001,2022-05-05_10h28.03.520,Digit Span Task,2021.2.3,Linux x86_64,60.0528465,,,,,,,,,,,,,,,,,,,,,
,,,,,,,,,,,0,001,2022-05-05_10h28.03.520,Digit Span Task,2021.2.3,Linux x86_64,60.0528465,"760

760",0,0.097384612,-0.418841441,1,0,0,cont_button,0,2,2,2,1,3,760,,,,,,
,,,,,,,,,,,0,001,2022-05-05_10h28.03.520,Digit Span Task,2021.2.3,Linux x86_64,60.0528465,,,,,,,,,,,,,,,,0,0,0,0,1,three.xlsx
,,,,,,0,0,0,0,1,0,001,2022-05-05_10h28.03.520,Digit Span Task,2021.2.3,Linux x86_64,60.0528465,,,,,,,,,,,,,,,,,,,,,
,,,,,,1,0,1,0,1,0,001,2022-05-05_10h28.03.520,Digit Span Task,2021.2.3,Linux x86_64,60.0528465,,,,,,,,,,,,,,,,,,,,,
,,,,,,2,0,2,0,1,0,001,2022-05-05_10h28.03.520,Digit Span Task,2021.2.3,Linux x86_64,60.0528465,,,,,,,,,,,,,,,,,,,,,
,,,,,,3,0,3,0,1,0,001,2022-05-05_10h28.03.520,Digit Span Task,2021.2.3,Linux x86_64,60.0528465,,,,,,,,,,,,,,,,,,,,,
,,,,,,,,,,,0,001,2022-05-05_10h28.03.520,Digit Span Task,2021.2.3,Linux x86_64,60.0528465,3141,1,-0.010471503,-0.403856595,1,0,0,cont_button,0,0,0,0,1,4,3141,,,,,,
,,,,,,0,0,0,0,1,0,001,2022-05-05_10h28.03.520,Digit Span Task,2021.2.3,Linux x86_64,60.0528465,,,,,,,,,,,,,,,,,,,,,
,,,,,,1,0,1,0,1,0,001,2022-05-05_10h28.03.520,Digit Span Task,2021.2.3,Linux x86_64,60.0528465,,,,,,,,,,,,,,,,,,,,,
,,,,,,2,0,2,0,1,0,001,2022-05-05_10h28.03.520,Digit Span Task,2021.2.3,Linux x86_64,60.0528465,,,,,,,,,,,,,,,,,,,,,
,,,,,,3,0,3,0,1,0,001,2022-05-05_10h28.03.520,Digit Span Task,2021.2.3,Linux x86_64,60.0528465,,,,,,,,,,,,,,,,,,,,,
,,,,,,,,,,,0,001,2022-05-05_10h28.03.520,Digit Span Task,2021.2.3,Linux x86_64,60.0528465,6351,1,0.008931398,-0.389993747,1,0,0,cont_button,0,1,1,1,1,4,6351,,,,,,
,,,,,,0,0,0,0,1,0,001,2022-05-05_10h28.03.520,Digit Span Task,2021.2.3,Linux x86_64,60.0528465,,,,,,,,,,,,,,,,,,,,,
,,,,,,1,0,1,0,1,0,001,2022-05-05_10h28.03.520,Digit Span Task,2021.2.3,Linux x86_64,60.0528465,,,,,,,,,,,,,,,,,,,,,
,,,,,,2,0,2,0,1,0,001,2022-05-05_10h28.03.520,Digit Span Task,2021.2.3,Linux x86_64,60.0528465,,,,,,,,,,,,,,,,,,,,,
,,,,,,3,0,3,0,1,0,001,2022-05-05_10h28.03.520,Digit Span Task,2021.2.3,Linux x86_64,60.0528465,,,,,,,,,,,,,,,,,,,,,
,,,,,,,,,,,0,001,2022-05-05_10h28.03.520,Digit Span Task,2021.2.3,Linux x86_64,60.0528465,2391,1,0.02764233,-0.402305206,1,0,0,cont_button,0,2,2,2,1,4,2391,,,,,,
,,,,,,,,,,,0,001,2022-05-05_10h28.03.520,Digit Span Task,2021.2.3,Linux x86_64,60.0528465,,,,,,,,,,,,,,,,0,1,1,1,1,four.xlsx
,,,,,,0,0,0,0,1,0,001,2022-05-05_10h28.03.520,Digit Span Task,2021.2.3,Linux x86_64,60.0528465,,,,,,,,,,,,,,,,,,,,,
,,,,,,1,0,1,0,1,0,001,2022-05-05_10h28.03.520,Digit Span Task,2021.2.3,Linux x86_64,60.0528465,,,,,,,,,,,,,,,,,,,,,
,,,,,,2,0,2,0,1,0,001,2022-05-05_10h28.03.520,Digit Span Task,2021.2.3,Linux x86_64,60.0528465,,,,,,,,,,,,,,,,,,,,,
,,,,,,3,0,3,0,1,0,001,2022-05-05_10h28.03.520,Digit Span Task,2021.2.3,Linux x86_64,60.0528465,,,,,,,,,,,,,,,,,,,,,
,,,,,,4,0,4,0,1,0,001,2022-05-05_10h28.03.520,Digit Span Task,2021.2.3,Linux x86_64,60.0528465,,,,,,,,,,,,,,,,,,,,,
,,,,,,,,,,,0,001,2022-05-05_10h28.03.520,Digit Span Task,2021.2.3,Linux x86_64,60.0528465,14932,1,0.106393973,-0.414971352,1,0,0,cont_button,0,0,0,0,1,5,14932,,,,,,
,,,,,,0,0,0,0,1,0,001,2022-05-05_10h28.03.520,Digit Span Task,2021.2.3,Linux x86_64,60.0528465,,,,,,,,,,,,,,,,,,,,,
,,,,,,1,0,1,0,1,0,001,2022-05-05_10h28.03.520,Digit Span Task,2021.2.3,Linux x86_64,60.0528465,,,,,,,,,,,,,,,,,,,,,
,,,,,,2,0,2,0,1,0,001,2022-05-05_10h28.03.520,Digit Span Task,2021.2.3,Linux x86_64,60.0528465,,,,,,,,,,,,,,,,,,,,,
,,,,,,3,0,3,0,1,0,001,2022-05-05_10h28.03.520,Digit Span Task,2021.2.3,Linux x86_64,60.0528465,,,,,,,,,,,,,,,,,,,,,
,,,,,,4,0,4,0,1,0,001,2022-05-05_10h28.03.520,Digit Span Task,2021.2.3,Linux x86_64,60.0528465,,,,,,,,,,,,,,,,,,,,,
,,,,,,,,,,,0,001,2022-05-05_10h28.03.520,Digit Span Task,2021.2.3,Linux x86_64,60.0528465,10646,1,0.100996653,-0.413701852,1,0,0,cont_button,0,1,1,1,1,5,10646,,,,,,
,,,,,,0,0,0,0,1,0,001,2022-05-05_10h28.03.520,Digit Span Task,2021.2.3,Linux x86_64,60.0528465,,,,,,,,,,,,,,,,,,,,,
,,,,,,1,0,1,0,1,0,001,2022-05-05_10h28.03.520,Digit Span Task,2021.2.3,Linux x86_64,60.0528465,,,,,,,,,,,,,,,,,,,,,
,,,,,,2,0,2,0,1,0,001,2022-05-05_10h28.03.520,Digit Span Task,2021.2.3,Linux x86_64,60.0528465,,,,,,,,,,,,,,,,,,,,,
,,,,,,3,0,3,0,1,0,001,2022-05-05_10h28.03.520,Digit Span Task,2021.2.3,Linux x86_64,60.0528465,,,,,,,,,,,,,,,,,,,,,
,,,,,,4,0,4,0,1,0,001,2022-05-05_10h28.03.520,Digit Span Task,2021.2.3,Linux x86_64,60.0528465,,,,,,,,,,,,,,,,,,,,,
,,,,,,,,,,,0,001,2022-05-05_10h28.03.520,Digit Span Task,2021.2.3,Linux x86_64,60.0528465,74832,1,0.093677282,-0.411074559,1,0,0,cont_button,0,2,2,2,1,5,74832,,,,,,
,,,,,,,,,,,0,001,2022-05-05_10h28.03.520,Digit Span Task,2021.2.3,Linux x86_64,60.0528465,,,,,,,,,,,,,,,,0,2,2,2,1,five.xlsx
,,,,,,0,0,0,0,1,0,001,2022-05-05_10h28.03.520,Digit Span Task,2021.2.3,Linux x86_64,60.0528465,,,,,,,,,,,,,,,,,,,,,
,,,,,,1,0,1,0,1,0,001,2022-05-05_10h28.03.520,Digit Span Task,2021.2.3,Linux x86_64,60.0528465,,,,,,,,,,,,,,,,,,,,,
,,,,,,2,0,2,0,1,0,001,2022-05-05_10h28.03.520,Digit Span Task,2021.2.3,Linux x86_64,60.0528465,,,,,,,,,,,,,,,,,,,,,
,,,,,,3,0,3,0,1,0,001,2022-05-05_10h28.03.520,Digit Span Task,2021.2.3,Linux x86_64,60.0528465,,,,,,,,,,,,,,,,,,,,,
,,,,,,4,0,4,0,1,0,001,2022-05-05_10h28.03.520,Digit Span Task,2021.2.3,Linux x86_64,60.0528465,,,,,,,,,,,,,,,,,,,,,
,,,,,,5,0,5,0,1,0,001,2022-05-05_10h28.03.520,Digit Span Task,2021.2.3,Linux x86_64,60.0528465,,,,,,,,,,,,,,,,,,,,,
,,,,,,,,,,,0,001,2022-05-05_10h28.03.520,Digit Span Task,2021.2.3,Linux x86_64,60.0528465,934648,1,0.090486526,-0.415391048,1,0,0,cont_button,0,0,0,0,1,6,934648,,,,,,
,,,,,,0,0,0,0,1,0,001,2022-05-05_10h28.03.520,Digit Span Task,2021.2.3,Linux x86_64,60.0528465,,,,,,,,,,,,,,,,,,,,,
,,,,,,1,0,1,0,1,0,001,2022-05-05_10h28.03.520,Digit Span Task,2021.2.3,Linux x86_64,60.0528465,,,,,,,,,,,,,,,,,,,,,
,,,,,,2,0,2,0,1,0,001,2022-05-05_10h28.03.520,Digit Span Task,2021.2.3,Linux x86_64,60.0528465,,,,,,,,,,,,,,,,,,,,,
,,,,,,3,0,3,0,1,0,001,2022-05-05_10h28.03.520,Digit Span Task,2021.2.3,Linux x86_64,60.0528465,,,,,,,,,,,,,,,,,,,,,
,,,,,,4,0,4,0,1,0,001,2022-05-05_10h28.03.520,Digit Span Task,2021.2.3,Linux x86_64,60.0528465,,,,,,,,,,,,,,,,,,,,,
,,,,,,5,0,5,0,1,0,001,2022-05-05_10h28.03.520,Digit Span Task,2021.2.3,Linux x86_64,60.0528465,,,,,,,,,,,,,,,,,,,,,
,,,,,,,,,,,0,001,2022-05-05_10h28.03.520,Digit Span Task,2021.2.3,Linux x86_64,60.0528465,179390,1,0.084293365,-0.414640427,1,0,0,cont_button,0,1,1,1,1,6,179390,,,,,,
,,,,,,0,0,0,0,1,0,001,2022-05-05_10h28.03.520,Digit Span Task,2021.2.3,Linux x86_64,60.0528465,,,,,,,,,,,,,,,,,,,,,
,,,,,,1,0,1,0,1,0,001,2022-05-05_10h28.03.520,Digit Span Task,2021.2.3,Linux x86_64,60.0528465,,,,,,,,,,,,,,,,,,,,,
,,,,,,2,0,2,0,1,0,001,2022-05-05_10h28.03.520,Digit Span Task,2021.2.3,Linux x86_64,60.0528465,,,,,,,,,,,,,,,,,,,,,
,,,,,,3,0,3,0,1,0,001,2022-05-05_10h28.03.520,Digit Span Task,2021.2.3,Linux x86_64,60.0528465,,,,,,,,,,,,,,,,,,,,,
,,,,,,4,0,4,0,1,0,001,2022-05-05_10h28.03.520,Digit Span Task,2021.2.3,Linux x86_64,60.0528465,,,,,,,,,,,,,,,,,,,,,
,,,,,,5,0,5,0,1,0,001,2022-05-05_10h28.03.520,Digit Span Task,2021.2.3,Linux x86_64,60.0528465,,,,,,,,,,,,,,,,,,,,,
,,,,,,,,,,,0,001,2022-05-05_10h28.03.520,Digit Span Task,2021.2.3,Linux x86_64,60.0528465,408288,1,0.082416614,-0.414640427,1,0,0,cont_button,0,2,2,2,1,6,408288,,,,,,
,,,,,,,,,,,0,001,2022-05-05_10h28.03.520,Digit Span Task,2021.2.3,Linux x86_64,60.0528465,,,,,,,,,,,,,,,,0,3,3,3,1,six.xlsx
,,,,,,0,0,0,0,1,0,001,2022-05-05_10h28.03.520,Digit Span Task,2021.2.3,Linux x86_64,60.0528465,,,,,,,,,,,,,,,,,,,,,
,,,,,,1,0,1,0,1,0,001,2022-05-05_10h28.03.520,Digit Span Task,2021.2.3,Linux x86_64,60.0528465,,,,,,,,,,,,,,,,,,,,,
,,,,,,2,0,2,0,1,0,001,2022-05-05_10h28.03.520,Digit Span Task,2021.2.3,Linux x86_64,60.0528465,,,,,,,,,,,,,,,,,,,,,
,,,,,,3,0,3,0,1,0,001,2022-05-05_10h28.03.520,Digit Span Task,2021.2.3,Linux x86_64,60.0528465,,,,,,,,,,,,,,,,,,,,,
,,,,,,4,0,4,0,1,0,001,2022-05-05_10h28.03.520,Digit Span Task,2021.2.3,Linux x86_64,60.0528465,,,,,,,,,,,,,,,,,,,,,
,,,,,,5,0,5,0,1,0,001,2022-05-05_10h28.03.520,Digit Span Task,2021.2.3,Linux x86_64,60.0528465,,,,,,,,,,,,,,,,,,,,,
,,,,,,6,0,6,0,1,0,001,2022-05-05_10h28.03.520,Digit Span Task,2021.2.3,Linux x86_64,60.0528465,,,,,,,,,,,,,,,,,,,,,
,,,,,,,,,,,0,001,2022-05-05_10h28.03.520,Digit Span Task,2021.2.3,Linux x86_64,60.0528465,4498237,1,0.074721734,-0.407883962,1,0,0,cont_button,0,0,0,0,1,7,4498237,,,,,,
,,,,,,0,0,0,0,1,0,001,2022-05-05_10h28.03.520,Digit Span Task,2021.2.3,Linux x86_64,60.0528465,,,,,,,,,,,,,,,,,,,,,
,,,,,,1,0,1,0,1,0,001,2022-05-05_10h28.03.520,Digit Span Task,2021.2.3,Linux x86_64,60.0528465,,,,,,,,,,,,,,,,,,,,,
,,,,,,2,0,2,0,1,0,001,2022-05-05_10h28.03.520,Digit Span Task,2021.2.3,Linux x86_64,60.0528465,,,,,,,,,,,,,,,,,,,,,
,,,,,,3,0,3,0,1,0,001,2022-05-05_10h28.03.520,Digit Span Task,2021.2.3,Linux x86_64,60.0528465,,,,,,,,,,,,,,,,,,,,,
,,,,,,4,0,4,0,1,0,001,2022-05-05_10h28.03.520,Digit Span Task,2021.2.3,Linux x86_64,60.0528465,,,,,,,,,,,,,,,,,,,,,
,,,,,,5,0,5,0,1,0,001,2022-05-05_10h28.03.520,Digit Span Task,2021.2.3,Linux x86_64,60.0528465,,,,,,,,,,,,,,,,,,,,,
,,,,,,6,0,6,0,1,0,001,2022-05-05_10h28.03.520,Digit Span Task,2021.2.3,Linux x86_64,60.0528465,,,,,,,,,,,,,,,,,,,,,
,,,,,,,,,,,0,001,2022-05-05_10h28.03.520,Digit Span Task,2021.2.3,Linux x86_64,60.0528465,2544371,1,0.074721734,-0.407883962,1,0,0,cont_button,0,1,1,1,1,7,2544371,,,,,,
,,,,,,0,0,0,0,1,0,001,2022-05-05_10h28.03.520,Digit Span Task,2021.2.3,Linux x86_64,60.0528465,,,,,,,,,,,,,,,,,,,,,
,,,,,,1,0,1,0,1,0,001,2022-05-05_10h28.03.520,Digit Span Task,2021.2.3,Linux x86_64,60.0528465,,,,,,,,,,,,,,,,,,,,,
,,,,,,2,0,2,0,1,0,001,2022-05-05_10h28.03.520,Digit Span Task,2021.2.3,Linux x86_64,60.0528465,,,,,,,,,,,,,,,,,,,,,
,,,,,,3,0,3,0,1,0,001,2022-05-05_10h28.03.520,Digit Span Task,2021.2.3,Linux x86_64,60.0528465,,,,,,,,,,,,,,,,,,,,,
,,,,,,4,0,4,0,1,0,001,2022-05-05_10h28.03.520,Digit Span Task,2021.2.3,Linux x86_64,60.0528465,,,,,,,,,,,,,,,,,,,,,
,,,,,,5,0,5,0,1,0,001,2022-05-05_10h28.03.520,Digit Span Task,2021.2.3,Linux x86_64,60.0528465,,,,,,,,,,,,,,,,,,,,,
,,,,,,6,0,6,0,1,0,001,2022-05-05_10h28.03.520,Digit Span Task,2021.2.3,Linux x86_64,60.0528465,,,,,,,,,,,,,,,,,,,,,
,,,,,,,,,,,0,001,2022-05-05_10h28.03.520,Digit Span Task,2021.2.3,Linux x86_64,60.0528465,8875085,1,0.065901915,-0.402253389,1,0,0,cont_button,0,2,2,2,1,7,8875085,,,,,,
,,,,,,,,,,,0,001,2022-05-05_10h28.03.520,Digit Span Task,2021.2.3,Linux x86_64,60.0528465,,,,,,,,,,,,,,,,0,4,4,4,1,seven.xlsx
,,,,,,0,0,0,0,1,0,001,2022-05-05_10h28.03.520,Digit Span Task,2021.2.3,Linux x86_64,60.0528465,,,,,,,,,,,,,,,,,,,,,
,,,,,,1,0,1,0,1,0,001,2022-05-05_10h28.03.520,Digit Span Task,2021.2.3,Linux x86_64,60.0528465,,,,,,,,,,,,,,,,,,,,,
,,,,,,2,0,2,0,1,0,001,2022-05-05_10h28.03.520,Digit Span Task,2021.2.3,Linux x86_64,60.0528465,,,,,,,,,,,,,,,,,,,,,
,,,,,,3,0,3,0,1,0,001,2022-05-05_10h28.03.520,Digit Span Task,2021.2.3,Linux x86_64,60.0528465,,,,,,,,,,,,,,,,,,,,,
,,,,,,4,0,4,0,1,0,001,2022-05-05_10h28.03.520,Digit Span Task,2021.2.3,Linux x86_64,60.0528465,,,,,,,,,,,,,,,,,,,,,
,,,,,,5,0,5,0,1,0,001,2022-05-05_10h28.03.520,Digit Span Task,2021.2.3,Linux x86_64,60.0528465,,,,,,,,,,,,,,,,,,,,,
,,,,,,6,0,6,0,1,0,001,2022-05-05_10h28.03.520,Digit Span Task,2021.2.3,Linux x86_64,60.0528465,,,,,,,,,,,,,,,,,,,,,
,,,,,,7,0,7,0,1,0,001,2022-05-05_10h28.03.520,Digit Span Task,2021.2.3,Linux x86_64,60.0528465,,,,,,,,,,,,,,,,,,,,,
,,,,,,,,,,,0,001,2022-05-05_10h28.03.520,Digit Span Task,2021.2.3,Linux x86_64,60.0528465,46229408,1,0.03181529,-0.417568922,1,0,0,cont_button,0,0,0,0,1,8,46229408,,,,,,
,,,,,,0,0,0,0,1,0,001,2022-05-05_10h28.03.520,Digit Span Task,2021.2.3,Linux x86_64,60.0528465,,,,,,,,,,,,,,,,,,,,,
,,,,,,1,0,1,0,1,0,001,2022-05-05_10h28.03.520,Digit Span Task,2021.2.3,Linux x86_64,60.0528465,,,,,,,,,,,,,,,,,,,,,
,,,,,,2,0,2,0,1,0,001,2022-05-05_10h28.03.520,Digit Span Task,2021.2.3,Linux x86_64,60.0528465,,,,,,,,,,,,,,,,,,,,,
,,,,,,3,0,3,0,1,0,001,2022-05-05_10h28.03.520,Digit Span Task,2021.2.3,Linux x86_64,60.0528465,,,,,,,,,,,,,,,,,,,,,
,,,,,,4,0,4,0,1,0,001,2022-05-05_10h28.03.520,Digit Span Task,2021.2.3,Linux x86_64,60.0528465,,,,,,,,,,,,,,,,,,,,,
,,,,,,5,0,5,0,1,0,001,2022-05-05_10h28.03.520,Digit Span Task,2021.2.3,Linux x86_64,60.0528465,,,,,,,,,,,,,,,,,,,,,
,,,,,,6,0,6,0,1,0,001,2022-05-05_10h28.03.520,Digit Span Task,2021.2.3,Linux x86_64,60.0528465,,,,,,,,,,,,,,,,,,,,,
,,,,,,7,0,7,0,1,0,001,2022-05-05_10h28.03.520,Digit Span Task,2021.2.3,Linux x86_64,60.0528465,,,,,,,,,,,,,,,,,,,,,
,,,,,,,,,,,0,001,2022-05-05_10h28.03.520,Digit Span Task,2021.2.3,Linux x86_64,60.0528465,70967882,1,-0.101419846,-0.417672793,1,0,0,cont_button,0,1,1,1,1,8,70967882,,,,,,
,,,,,,0,0,0,0,1,0,001,2022-05-05_10h28.03.520,Digit Span Task,2021.2.3,Linux x86_64,60.0528465,,,,,,,,,,,,,,,,,,,,,
,,,,,,1,0,1,0,1,0,001,2022-05-05_10h28.03.520,Digit Span Task,2021.2.3,Linux x86_64,60.0528465,,,,,,,,,,,,,,,,,,,,,
,,,,,,2,0,2,0,1,0,001,2022-05-05_10h28.03.520,Digit Span Task,2021.2.3,Linux x86_64,60.0528465,,,,,,,,,,,,,,,,,,,,,
,,,,,,3,0,3,0,1,0,001,2022-05-05_10h28.03.520,Digit Span Task,2021.2.3,Linux x86_64,60.0528465,,,,,,,,,,,,,,,,,,,,,
,,,,,,4,0,4,0,1,0,001,2022-05-05_10h28.03.520,Digit Span Task,2021.2.3,Linux x86_64,60.0528465,,,,,,,,,,,,,,,,,,,,,
,,,,,,5,0,5,0,1,0,001,2022-05-05_10h28.03.520,Digit Span Task,2021.2.3,Linux x86_64,60.0528465,,,,,,,,,,,,,,,,,,,,,
,,,,,,6,0,6,0,1,0,001,2022-05-05_10h28.03.520,Digit Span Task,2021.2.3,Linux x86_64,60.0528465,,,,,,,,,,,,,,,,,,,,,
,,,,,,7,0,7,0,1,0,001,2022-05-05_10h28.03.520,Digit Span Task,2021.2.3,Linux x86_64,60.0528465,,,,,,,,,,,,,,,,,,,,,
,,,,,,,,,,,0,001,2022-05-05_10h28.03.520,Digit Span Task,2021.2.3,Linux x86_64,60.0528465,279310,0,-0.060490926,-0.430475394,1,0,0,cont_button,0,2,2,2,1,8,27139320,,,,,,
,,,,,,,,,,,0,001,2022-05-05_10h28.03.520,Digit Span Task,2021.2.3,Linux x86_64,60.0528465,,,,,,,,,,,,,,,,0,5,5,5,1,eight.xlsx
,,,,,,0,0,0,0,1,0,001,2022-05-05_10h28.03.520,Digit Span Task,2021.2.3,Linux x86_64,60.0528465,,,,,,,,,,,,,,,,,,,,,
,,,,,,1,0,1,0,1,0,001,2022-05-05_10h28.03.520,Digit Span Task,2021.2.3,Linux x86_64,60.0528465,,,,,,,,,,,,,,,,,,,,,
,,,,,,2,0,2,0,1,0,001,2022-05-05_10h28.03.520,Digit Span Task,2021.2.3,Linux x86_64,60.0528465,,,,,,,,,,,,,,,,,,,,,
,,,,,,3,0,3,0,1,0,001,2022-05-05_10h28.03.520,Digit Span Task,2021.2.3,Linux x86_64,60.0528465,,,,,,,,,,,,,,,,,,,,,
,,,,,,4,0,4,0,1,0,001,2022-05-05_10h28.03.520,Digit Span Task,2021.2.3,Linux x86_64,60.0528465,,,,,,,,,,,,,,,,,,,,,
,,,,,,5,0,5,0,1,0,001,2022-05-05_10h28.03.520,Digit Span Task,2021.2.3,Linux x86_64,60.0528465,,,,,,,,,,,,,,,,,,,,,
,,,,,,6,0,6,0,1,0,001,2022-05-05_10h28.03.520,Digit Span Task,2021.2.3,Linux x86_64,60.0528465,,,,,,,,,,,,,,,,,,,,,
,,,,,,7,0,7,0,1,0,001,2022-05-05_10h28.03.520,Digit Span Task,2021.2.3,Linux x86_64,60.0528465,,,,,,,,,,,,,,,,,,,,,
,,,,,,8,0,8,0,1,0,001,2022-05-05_10h28.03.520,Digit Span Task,2021.2.3,Linux x86_64,60.0528465,,,,,,,,,,,,,,,,,,,,,
,,,,,,,,,,,0,001,2022-05-05_10h28.03.520,Digit Span Task,2021.2.3,Linux x86_64,60.0528465,36837432,0,-0.075665633,-0.433507363,1,0,0,cont_button,0,0,0,0,1,9,368373442,,,,,,
,,,,,,0,0,0,0,1,0,001,2022-05-05_10h28.03.520,Digit Span Task,2021.2.3,Linux x86_64,60.0528465,,,,,,,,,,,,,,,,,,,,,
,,,,,,1,0,1,0,1,0,001,2022-05-05_10h28.03.520,Digit Span Task,2021.2.3,Linux x86_64,60.0528465,,,,,,,,,,,,,,,,,,,,,
,,,,,,2,0,2,0,1,0,001,2022-05-05_10h28.03.520,Digit Span Task,2021.2.3,Linux x86_64,60.0528465,,,,,,,,,,,,,,,,,,,,,
,,,,,,3,0,3,0,1,0,001,2022-05-05_10h28.03.520,Digit Span Task,2021.2.3,Linux x86_64,60.0528465,,,,,,,,,,,,,,,,,,,,,
,,,,,,4,0,4,0,1,0,001,2022-05-05_10h28.03.520,Digit Span Task,2021.2.3,Linux x86_64,60.0528465,,,,,,,,,,,,,,,,,,,,,
,,,,,,5,0,5,0,1,0,001,2022-05-05_10h28.03.520,Digit Span Task,2021.2.3,Linux x86_64,60.0528465,,,,,,,,,,,,,,,,,,,,,
,,,,,,6,0,6,0,1,0,001,2022-05-05_10h28.03.520,Digit Span Task,2021.2.3,Linux x86_64,60.0528465,,,,,,,,,,,,,,,,,,,,,
,,,,,,7,0,7,0,1,0,001,2022-05-05_10h28.03.520,Digit Span Task,2021.2.3,Linux x86_64,60.0528465,,,,,,,,,,,,,,,,,,,,,
,,,,,,8,0,8,0,1,0,001,2022-05-05_10h28.03.520,Digit Span Task,2021.2.3,Linux x86_64,60.0528465,,,,,,,,,,,,,,,,,,,,,
,,,,,,,,,,,0,001,2022-05-05_10h28.03.520,Digit Span Task,2021.2.3,Linux x86_64,60.0528465,57627091,0,-0.067739646,-0.409396331,1,0,0,cont_button,0,1,1,1,1,9,576270919,,,,,,
,,,,,,0,0,0,0,1,0,001,2022-05-05_10h28.03.520,Digit Span Task,2021.2.3,Linux x86_64,60.0528465,,,,,,,,,,,,,,,,,,,,,
,,,,,,1,0,1,0,1,0,001,2022-05-05_10h28.03.520,Digit Span Task,2021.2.3,Linux x86_64,60.0528465,,,,,,,,,,,,,,,,,,,,,
,,,,,,2,0,2,0,1,0,001,2022-05-05_10h28.03.520,Digit Span Task,2021.2.3,Linux x86_64,60.0528465,,,,,,,,,,,,,,,,,,,,,
,,,,,,3,0,3,0,1,0,001,2022-05-05_10h28.03.520,Digit Span Task,2021.2.3,Linux x86_64,60.0528465,,,,,,,,,,,,,,,,,,,,,
,,,,,,4,0,4,0,1,0,001,2022-05-05_10h28.03.520,Digit Span Task,2021.2.3,Linux x86_64,60.0528465,,,,,,,,,,,,,,,,,,,,,
,,,,,,5,0,5,0,1,0,001,2022-05-05_10h28.03.520,Digit Span Task,2021.2.3,Linux x86_64,60.0528465,,,,,,,,,,,,,,,,,,,,,
,,,,,,6,0,6,0,1,0,001,2022-05-05_10h28.03.520,Digit Span Task,2021.2.3,Linux x86_64,60.0528465,,,,,,,,,,,,,,,,,,,,,
,,,,,,7,0,7,0,1,0,001,2022-05-05_10h28.03.520,Digit Span Task,2021.2.3,Linux x86_64,60.0528465,,,,,,,,,,,,,,,,,,,,,
,,,,,,8,0,8,0,1,0,001,2022-05-05_10h28.03.520,Digit Span Task,2021.2.3,Linux x86_64,60.0528465,,,,,,,,,,,,,,,,,,,,,
,,,,,,,,,,,0,001,2022-05-05_10h28.03.520,Digit Span Task,2021.2.3,Linux x86_64,60.0528465,6866957,0,0.007828871,-0.373238405,1,0,0,cont_button,0,2,2,2,1,9,688655957,,,,,,
,,,,,,,,,,,0,001,2022-05-05_10h28.03.520,Digit Span Task,2021.2.3,Linux x86_64,60.0528465,,,,,,,,,,,,,,,,0,6,6,6,1,nine.xlsx
,,,,,,0,0,0,0,1,0,001,2022-05-05_10h28.03.520,Digit Span Task,2021.2.3,Linux x86_64,60.0528465,,,,,,,,,,,,,,,,,,,,,
,,,,,,1,0,1,0,1,0,001,2022-05-05_10h28.03.520,Digit Span Task,2021.2.3,Linux x86_64,60.0528465,,,,,,,,,,,,,,,,,,,,,
,,,,,,2,0,2,0,1,0,001,2022-05-05_10h28.03.520,Digit Span Task,2021.2.3,Linux x86_64,60.0528465,,,,,,,,,,,,,,,,,,,,,
,,,,,,3,0,3,0,1,0,001,2022-05-05_10h28.03.520,Digit Span Task,2021.2.3,Linux x86_64,60.0528465,,,,,,,,,,,,,,,,,,,,,
,,,,,,4,0,4,0,1,0,001,2022-05-05_10h28.03.520,Digit Span Task,2021.2.3,Linux x86_64,60.0528465,,,,,,,,,,,,,,,,,,,,,
,,,,,,5,0,5,0,1,0,001,2022-05-05_10h28.03.520,Digit Span Task,2021.2.3,Linux x86_64,60.0528465,,,,,,,,,,,,,,,,,,,,,
,,,,,,6,0,6,0,1,0,001,2022-05-05_10h28.03.520,Digit Span Task,2021.2.3,Linux x86_64,60.0528465,,,,,,,,,,,,,,,,,,,,,
,,,,,,7,0,7,0,1,0,001,2022-05-05_10h28.03.520,Digit Span Task,2021.2.3,Linux x86_64,60.0528465,,,,,,,,,,,,,,,,,,,,,
,,,,,,8,0,8,0,1,0,001,2022-05-05_10h28.03.520,Digit Span Task,2021.2.3,Linux x86_64,60.0528465,,,,,,,,,,,,,,,,,,,,,
,,,,,,9,0,9,0,1,0,001,2022-05-05_10h28.03.520,Digit Span Task,2021.2.3,Linux x86_64,60.0528465,,,,,,,,,,,,,,,,,,,,,
,,,,,,,,,,,0,001,2022-05-05_10h28.03.520,Digit Span Task,2021.2.3,Linux x86_64,60.0528465,64332900801,0,-0.0105172,-0.375860453,1,0,0,cont_button,0,0,0,0,1,10,6432900801,,,,,,
,,,,,,0,0,0,0,1,0,001,2022-05-05_10h28.03.520,Digit Span Task,2021.2.3,Linux x86_64,60.0528465,,,,,,,,,,,,,,,,,,,,,
,,,,,,1,0,1,0,1,0,001,2022-05-05_10h28.03.520,Digit Span Task,2021.2.3,Linux x86_64,60.0528465,,,,,,,,,,,,,,,,,,,,,
,,,,,,2,0,2,0,1,0,001,2022-05-05_10h28.03.520,Digit Span Task,2021.2.3,Linux x86_64,60.0528465,,,,,,,,,,,,,,,,,,,,,
,,,,,,3,0,3,0,1,0,001,2022-05-05_10h28.03.520,Digit Span Task,2021.2.3,Linux x86_64,60.0528465,,,,,,,,,,,,,,,,,,,,,
,,,,,,4,0,4,0,1,0,001,2022-05-05_10h28.03.520,Digit Span Task,2021.2.3,Linux x86_64,60.0528465,,,,,,,,,,,,,,,,,,,,,
,,,,,,5,0,5,0,1,0,001,2022-05-05_10h28.03.520,Digit Span Task,2021.2.3,Linux x86_64,60.0528465,,,,,,,,,,,,,,,,,,,,,
,,,,,,6,0,6,0,1,0,001,2022-05-05_10h28.03.520,Digit Span Task,2021.2.3,Linux x86_64,60.0528465,,,,,,,,,,,,,,,,,,,,,
,,,,,,7,0,7,0,1,0,001,2022-05-05_10h28.03.520,Digit Span Task,2021.2.3,Linux x86_64,60.0528465,,,,,,,,,,,,,,,,,,,,,
,,,,,,8,0,8,0,1,0,001,2022-05-05_10h28.03.520,Digit Span Task,2021.2.3,Linux x86_64,60.0528465,,,,,,,,,,,,,,,,,,,,,
,,,,,,9,0,9,0,1,0,001,2022-05-05_10h28.03.520,Digit Span Task,2021.2.3,Linux x86_64,60.0528465,,,,,,,,,,,,,,,,,,,,,
,,,,,,,,,,,0,001,2022-05-05_10h28.03.520,Digit Span Task,2021.2.3,Linux x86_64,60.0528465,806734892,0,-0.057041804,-0.385058562,1,0,0,cont_button,0,1,1,1,1,10,8467348927,,,,,,
,,,,,,0,0,0,0,1,0,001,2022-05-05_10h28.03.520,Digit Span Task,2021.2.3,Linux x86_64,60.0528465,,,,,,,,,,,,,,,,,,,,,
,,,,,,1,0,1,0,1,0,001,2022-05-05_10h28.03.520,Digit Span Task,2021.2.3,Linux x86_64,60.0528465,,,,,,,,,,,,,,,,,,,,,
,,,,,,2,0,2,0,1,0,001,2022-05-05_10h28.03.520,Digit Span Task,2021.2.3,Linux x86_64,60.0528465,,,,,,,,,,,,,,,,,,,,,
,,,,,,3,0,3,0,1,0,001,2022-05-05_10h28.03.520,Digit Span Task,2021.2.3,Linux x86_64,60.0528465,,,,,,,,,,,,,,,,,,,,,
,,,,,,4,0,4,0,1,0,001,2022-05-05_10h28.03.520,Digit Span Task,2021.2.3,Linux x86_64,60.0528465,,,,,,,,,,,,,,,,,,,,,
,,,,,,5,0,5,0,1,0,001,2022-05-05_10h28.03.520,Digit Span Task,2021.2.3,Linux x86_64,60.0528465,,,,,,,,,,,,,,,,,,,,,
,,,,,,6,0,6,0,1,0,001,2022-05-05_10h28.03.520,Digit Span Task,2021.2.3,Linux x86_64,60.0528465,,,,,,,,,,,,,,,,,,,,,
,,,,,,7,0,7,0,1,0,001,2022-05-05_10h28.03.520,Digit Span Task,2021.2.3,Linux x86_64,60.0528465,,,,,,,,,,,,,,,,,,,,,
,,,,,,8,0,8,0,1,0,001,2022-05-05_10h28.03.520,Digit Span Task,2021.2.3,Linux x86_64,60.0528465,,,,,,,,,,,,,,,,,,,,,
,,,,,,9,0,9,0,1,0,001,2022-05-05_10h28.03.520,Digit Span Task,2021.2.3,Linux x86_64,60.0528465,,,,,,,,,,,,,,,,,,,,,
,,,,,,,,,,,0,001,2022-05-05_10h28.03.520,Digit Span Task,2021.2.3,Linux x86_64,60.0528465,48619463,0,0.046418031,-0.366324345,1,0,0,cont_button,0,2,2,2,1,10,4184946413,,,,,,
,,,,,,,,,,,0,001,2022-05-05_10h28.03.520,Digit Span Task,2021.2.3,Linux x86_64,60.0528465,,,,,,,,,,,,,,,,0,7,7,7,1,ten.xlsx
,,,,,,0,0,0,0,1,0,001,2022-05-05_10h28.03.520,Digit Span Task,2021.2.3,Linux x86_64,60.0528465,,,,,,,,,,,,,,,,,,,,,
,,,,,,1,0,1,0,1,0,001,2022-05-05_10h28.03.520,Digit Span Task,2021.2.3,Linux x86_64,60.0528465,,,,,,,,,,,,,,,,,,,,,
,,,,,,2,0,2,0,1,0,001,2022-05-05_10h28.03.520,Digit Span Task,2021.2.3,Linux x86_64,60.0528465,,,,,,,,,,,,,,,,,,,,,
,,,,,,3,0,3,0,1,0,001,2022-05-05_10h28.03.520,Digit Span Task,2021.2.3,Linux x86_64,60.0528465,,,,,,,,,,,,,,,,,,,,,
,,,,,,4,0,4,0,1,0,001,2022-05-05_10h28.03.520,Digit Span Task,2021.2.3,Linux x86_64,60.0528465,,,,,,,,,,,,,,,,,,,,,
,,,,,,5,0,5,0,1,0,001,2022-05-05_10h28.03.520,Digit Span Task,2021.2.3,Linux x86_64,60.0528465,,,,,,,,,,,,,,,,,,,,,
,,,,,,6,0,6,0,1,0,001,2022-05-05_10h28.03.520,Digit Span Task,2021.2.3,Linux x86_64,60.0528465,,,,,,,,,,,,,,,,,,,,,
,,,,,,7,0,7,0,1,0,001,2022-05-05_10h28.03.520,Digit Span Task,2021.2.3,Linux x86_64,60.0528465,,,,,,,,,,,,,,,,,,,,,
,,,,,,8,0,8,0,1,0,001,2022-05-05_10h28.03.520,Digit Span Task,2021.2.3,Linux x86_64,60.0528465,,,,,,,,,,,,,,,,,,,,,
,,,,,,9,0,9,0,1,0,001,2022-05-05_10h28.03.520,Digit Span Task,2021.2.3,Linux x86_64,60.0528465,,,,,,,,,,,,,,,,,,,,,
,,,,,,10,0,10,0,1,0,001,2022-05-05_10h28.03.520,Digit Span Task,2021.2.3,Linux x86_64,60.0528465,,,,,,,,,,,,,,,,,,,,,
,,,,,,,,,,,0,001,2022-05-05_10h28.03.520,Digit Span Task,2021.2.3,Linux x86_64,60.0528465,7039,0,0.072708289,-0.42595609,1,0,0,cont_button,0,0,0,0,1,11,73290740563,,,,,,
,,,,,,0,0,0,0,1,0,001,2022-05-05_10h28.03.520,Digit Span Task,2021.2.3,Linux x86_64,60.0528465,,,,,,,,,,,,,,,,,,,,,
,,,,,,1,0,1,0,1,0,001,2022-05-05_10h28.03.520,Digit Span Task,2021.2.3,Linux x86_64,60.0528465,,,,,,,,,,,,,,,,,,,,,
,,,,,,2,0,2,0,1,0,001,2022-05-05_10h28.03.520,Digit Span Task,2021.2.3,Linux x86_64,60.0528465,,,,,,,,,,,,,,,,,,,,,
,,,,,,3,0,3,0,1,0,001,2022-05-05_10h28.03.520,Digit Span Task,2021.2.3,Linux x86_64,60.0528465,,,,,,,,,,,,,,,,,,,,,
,,,,,,4,0,4,0,1,0,001,2022-05-05_10h28.03.520,Digit Span Task,2021.2.3,Linux x86_64,60.0528465,,,,,,,,,,,,,,,,,,,,,
,,,,,,5,0,5,0,1,0,001,2022-05-05_10h28.03.520,Digit Span Task,2021.2.3,Linux x86_64,60.0528465,,,,,,,,,,,,,,,,,,,,,
,,,,,,6,0,6,0,1,0,001,2022-05-05_10h28.03.520,Digit Span Task,2021.2.3,Linux x86_64,60.0528465,,,,,,,,,,,,,,,,,,,,,
,,,,,,7,0,7,0,1,0,001,2022-05-05_10h28.03.520,Digit Span Task,2021.2.3,Linux x86_64,60.0528465,,,,,,,,,,,,,,,,,,,,,
,,,,,,8,0,8,0,1,0,001,2022-05-05_10h28.03.520,Digit Span Task,2021.2.3,Linux x86_64,60.0528465,,,,,,,,,,,,,,,,,,,,,
,,,,,,9,0,9,0,1,0,001,2022-05-05_10h28.03.520,Digit Span Task,2021.2.3,Linux x86_64,60.0528465,,,,,,,,,,,,,,,,,,,,,
,,,,,,10,0,10,0,1,0,001,2022-05-05_10h28.03.520,Digit Span Task,2021.2.3,Linux x86_64,60.0528465,,,,,,,,,,,,,,,,,,,,,
,,,,,,,,,,,0,001,2022-05-05_10h28.03.520,Digit Span Task,2021.2.3,Linux x86_64,60.0528465,707498822277,0,0.095640341,-0.366835753,1,0,0,cont_button,0,1,1,1,1,11,74948772224,,,,,,
,,,,,,0,0,0,0,1,0,001,2022-05-05_10h28.03.520,Digit Span Task,2021.2.3,Linux x86_64,60.0528465,,,,,,,,,,,,,,,,,,,,,
,,,,,,1,0,1,0,1,0,001,2022-05-05_10h28.03.520,Digit Span Task,2021.2.3,Linux x86_64,60.0528465,,,,,,,,,,,,,,,,,,,,,
,,,,,,2,0,2,0,1,0,001,2022-05-05_10h28.03.520,Digit Span Task,2021.2.3,Linux x86_64,60.0528465,,,,,,,,,,,,,,,,,,,,,
,,,,,,3,0,3,0,1,0,001,2022-05-05_10h28.03.520,Digit Span Task,2021.2.3,Linux x86_64,60.0528465,,,,,,,,,,,,,,,,,,,,,
,,,,,,4,0,4,0,1,0,001,2022-05-05_10h28.03.520,Digit Span Task,2021.2.3,Linux x86_64,60.0528465,,,,,,,,,,,,,,,,,,,,,
,,,,,,5,0,5,0,1,0,001,2022-05-05_10h28.03.520,Digit Span Task,2021.2.3,Linux x86_64,60.0528465,,,,,,,,,,,,,,,,,,,,,
,,,,,,6,0,6,0,1,0,001,2022-05-05_10h28.03.520,Digit Span Task,2021.2.3,Linux x86_64,60.0528465,,,,,,,,,,,,,,,,,,,,,
,,,,,,7,0,7,0,1,0,001,2022-05-05_10h28.03.520,Digit Span Task,2021.2.3,Linux x86_64,60.0528465,,,,,,,,,,,,,,,,,,,,,
,,,,,,8,0,8,0,1,0,001,2022-05-05_10h28.03.520,Digit Span Task,2021.2.3,Linux x86_64,60.0528465,,,,,,,,,,,,,,,,,,,,,
,,,,,,9,0,9,0,1,0,001,2022-05-05_10h28.03.520,Digit Span Task,2021.2.3,Linux x86_64,60.0528465,,,,,,,,,,,,,,,,,,,,,
,,,,,,10,0,10,0,1,0,001,2022-05-05_10h28.03.520,Digit Span Task,2021.2.3,Linux x86_64,60.0528465,,,,,,,,,,,,,,,,,,,,,
,,,,,,,,,,,0,001,2022-05-05_10h28.03.520,Digit Span Task,2021.2.3,Linux x86_64,60.0528465,9708462270,0,0.085675478,-0.426845551,1,0,0,cont_button,0,2,2,2,1,11,97084622072,,,,,,
,,,,,,,,,,,0,001,2022-05-05_10h28.03.520,Digit Span Task,2021.2.3,Linux x86_64,60.0528465,,,,,,,,,,,,,,,,0,8,8,8,1,eleven.xlsx
,,,,,,0,0,0,0,1,0,001,2022-05-05_10h28.03.520,Digit Span Task,2021.2.3,Linux x86_64,60.0528465,,,,,,,,,,,,,,,,,,,,,
,,,,,,1,0,1,0,1,0,001,2022-05-05_10h28.03.520,Digit Span Task,2021.2.3,Linux x86_64,60.0528465,,,,,,,,,,,,,,,,,,,,,
,,,,,,2,0,2,0,1,0,001,2022-05-05_10h28.03.520,Digit Span Task,2021.2.3,Linux x86_64,60.0528465,,,,,,,,,,,,,,,,,,,,,
,,,,,,3,0,3,0,1,0,001,2022-05-05_10h28.03.520,Digit Span Task,2021.2.3,Linux x86_64,60.0528465,,,,,,,,,,,,,,,,,,,,,
,,,,,,4,0,4,0,1,0,001,2022-05-05_10h28.03.520,Digit Span Task,2021.2.3,Linux x86_64,60.0528465,,,,,,,,,,,,,,,,,,,,,
,,,,,,5,0,5,0,1,0,001,2022-05-05_10h28.03.520,Digit Span Task,2021.2.3,Linux x86_64,60.0528465,,,,,,,,,,,,,,,,,,,,,
,,,,,,6,0,6,0,1,0,001,2022-05-05_10h28.03.520,Digit Span Task,2021.2.3,Linux x86_64,60.0528465,,,,,,,,,,,,,,,,,,,,,
,,,,,,7,0,7,0,1,0,001,2022-05-05_10h28.03.520,Digit Span Task,2021.2.3,Linux x86_64,60.0528465,,,,,,,,,,,,,,,,,,,,,
,,,,,,8,0,8,0,1,0,001,2022-05-05_10h28.03.520,Digit Span Task,2021.2.3,Linux x86_64,60.0528465,,,,,,,,,,,,,,,,,,,,,
,,,,,,9,0,9,0,1,0,001,2022-05-05_10h28.03.520,Digit Span Task,2021.2.3,Linux x86_64,60.0528465,,,,,,,,,,,,,,,,,,,,,
,,,,,,10,0,10,0,1,0,001,2022-05-05_10h28.03.520,Digit Span Task,2021.2.3,Linux x86_64,60.0528465,,,,,,,,,,,,,,,,,,,,,
,,,,,,11,0,11,0,1,0,001,2022-05-05_10h28.03.520,Digit Span Task,2021.2.3,Linux x86_64,60.0528465,,,,,,,,,,,,,,,,,,,,,
,,,,,,,,,,,0,001,2022-05-05_10h28.03.520,Digit Span Task,2021.2.3,Linux x86_64,60.0528465,68134950,0,0.095980485,-0.421035051,1,0,0,cont_button,0,0,0,0,1,12,6.81346E+11,,,,,,
,,,,,,0,0,0,0,1,0,001,2022-05-05_10h28.03.520,Digit Span Task,2021.2.3,Linux x86_64,60.0528465,,,,,,,,,,,,,,,,,,,,,
,,,,,,1,0,1,0,1,0,001,2022-05-05_10h28.03.520,Digit Span Task,2021.2.3,Linux x86_64,60.0528465,,,,,,,,,,,,,,,,,,,,,
,,,,,,2,0,2,0,1,0,001,2022-05-05_10h28.03.520,Digit Span Task,2021.2.3,Linux x86_64,60.0528465,,,,,,,,,,,,,,,,,,,,,
,,,,,,3,0,3,0,1,0,001,2022-05-05_10h28.03.520,Digit Span Task,2021.2.3,Linux x86_64,60.0528465,,,,,,,,,,,,,,,,,,,,,
,,,,,,4,0,4,0,1,0,001,2022-05-05_10h28.03.520,Digit Span Task,2021.2.3,Linux x86_64,60.0528465,,,,,,,,,,,,,,,,,,,,,
,,,,,,5,0,5,0,1,0,001,2022-05-05_10h28.03.520,Digit Span Task,2021.2.3,Linux x86_64,60.0528465,,,,,,,,,,,,,,,,,,,,,
,,,,,,6,0,6,0,1,0,001,2022-05-05_10h28.03.520,Digit Span Task,2021.2.3,Linux x86_64,60.0528465,,,,,,,,,,,,,,,,,,,,,
,,,,,,7,0,7,0,1,0,001,2022-05-05_10h28.03.520,Digit Span Task,2021.2.3,Linux x86_64,60.0528465,,,,,,,,,,,,,,,,,,,,,
,,,,,,8,0,8,0,1,0,001,2022-05-05_10h28.03.520,Digit Span Task,2021.2.3,Linux x86_64,60.0528465,,,,,,,,,,,,,,,,,,,,,
,,,,,,9,0,9,0,1,0,001,2022-05-05_10h28.03.520,Digit Span Task,2021.2.3,Linux x86_64,60.0528465,,,,,,,,,,,,,,,,,,,,,
,,,,,,10,0,10,0,1,0,001,2022-05-05_10h28.03.520,Digit Span Task,2021.2.3,Linux x86_64,60.0528465,,,,,,,,,,,,,,,,,,,,,
,,,,,,11,0,11,0,1,0,001,2022-05-05_10h28.03.520,Digit Span Task,2021.2.3,Linux x86_64,60.0528465,,,,,,,,,,,,,,,,,,,,,
,,,,,,,,,,,0,001,2022-05-05_10h28.03.520,Digit Span Task,2021.2.3,Linux x86_64,60.0528465,87237965813,0,0.101573547,-0.427886327,1,0,0,cont_button,0,1,1,1,1,12,8.7238E+11,,,,,,
,,,,,,0,0,0,0,1,0,001,2022-05-05_10h28.03.520,Digit Span Task,2021.2.3,Linux x86_64,60.0528465,,,,,,,,,,,,,,,,,,,,,
,,,,,,1,0,1,0,1,0,001,2022-05-05_10h28.03.520,Digit Span Task,2021.2.3,Linux x86_64,60.0528465,,,,,,,,,,,,,,,,,,,,,
,,,,,,2,0,2,0,1,0,001,2022-05-05_10h28.03.520,Digit Span Task,2021.2.3,Linux x86_64,60.0528465,,,,,,,,,,,,,,,,,,,,,
,,,,,,3,0,3,0,1,0,001,2022-05-05_10h28.03.520,Digit Span Task,2021.2.3,Linux x86_64,60.0528465,,,,,,,,,,,,,,,,,,,,,
,,,,,,4,0,4,0,1,0,001,2022-05-05_10h28.03.520,Digit Span Task,2021.2.3,Linux x86_64,60.0528465,,,,,,,,,,,,,,,,,,,,,
,,,,,,5,0,5,0,1,0,001,2022-05-05_10h28.03.520,Digit Span Task,2021.2.3,Linux x86_64,60.0528465,,,,,,,,,,,,,,,,,,,,,
,,,,,,6,0,6,0,1,0,001,2022-05-05_10h28.03.520,Digit Span Task,2021.2.3,Linux x86_64,60.0528465,,,,,,,,,,,,,,,,,,,,,
,,,,,,7,0,7,0,1,0,001,2022-05-05_10h28.03.520,Digit Span Task,2021.2.3,Linux x86_64,60.0528465,,,,,,,,,,,,,,,,,,,,,
,,,,,,8,0,8,0,1,0,001,2022-05-05_10h28.03.520,Digit Span Task,2021.2.3,Linux x86_64,60.0528465,,,,,,,,,,,,,,,,,,,,,
,,,,,,9,0,9,0,1,0,001,2022-05-05_10h28.03.520,Digit Span Task,2021.2.3,Linux x86_64,60.0528465,,,,,,,,,,,,,,,,,,,,,
,,,,,,10,0,10,0,1,0,001,2022-05-05_10h28.03.520,Digit Span Task,2021.2.3,Linux x86_64,60.0528465,,,,,,,,,,,,,,,,,,,,,
,,,,,,11,0,11,0,1,0,001,2022-05-05_10h28.03.520,Digit Span Task,2021.2.3,Linux x86_64,60.0528465,,,,,,,,,,,,,,,,,,,,,
,,,,,,,,,,,0,001,2022-05-05_10h28.03.520,Digit Span Task,2021.2.3,Linux x86_64,60.0528465,24107220,0,0.035263459,-0.408026377,1,0,0,cont_button,0,2,2,2,1,12,2.41072E+11,,,,,,
,,,,,,,,,,,0,001,2022-05-05_10h28.03.520,Digit Span Task,2021.2.3,Linux x86_64,60.0528465,,,,,,,,,,,,,,,,0,9,9,9,1,twelve.xlsx
,,,,,,0,0,0,0,1,0,001,2022-05-05_10h28.03.520,Digit Span Task,2021.2.3,Linux x86_64,60.0528465,,,,,,,,,,,,,,,,,,,,,
,,,,,,1,0,1,0,1,0,001,2022-05-05_10h28.03.520,Digit Span Task,2021.2.3,Linux x86_64,60.0528465,,,,,,,,,,,,,,,,,,,,,
,,,,,,2,0,2,0,1,0,001,2022-05-05_10h28.03.520,Digit Span Task,2021.2.3,Linux x86_64,60.0528465,,,,,,,,,,,,,,,,,,,,,
,,,,,,,,,,,0,001,2022-05-05_10h28.03.520,Digit Span Task,2021.2.3,Linux x86_64,60.0528465,"217
",0,-0.025760889,-0.410713832,1,0,0,cont_button,0,0,0,0,1,3,217,,,,,,
,,,,,,0,0,0,0,1,0,001,2022-05-05_10h28.03.520,Digit Span Task,2021.2.3,Linux x86_64,60.0528465,,,,,,,,,,,,,,,,,,,,,
,,,,,,1,0,1,0,1,0,001,2022-05-05_10h28.03.520,Digit Span Task,2021.2.3,Linux x86_64,60.0528465,,,,,,,,,,,,,,,,,,,,,
,,,,,,2,0,2,0,1,0,001,2022-05-05_10h28.03.520,Digit Span Task,2021.2.3,Linux x86_64,60.0528465,,,,,,,,,,,,,,,,,,,,,
,,,,,,,,,,,0,001,2022-05-05_10h28.03.520,Digit Span Task,2021.2.3,Linux x86_64,60.0528465,486,1,-0.027262131,-0.407710552,1,0,0,cont_button,0,1,1,1,1,3,486,,,,,,
,,,,,,0,0,0,0,1,0,001,2022-05-05_10h28.03.520,Digit Span Task,2021.2.3,Linux x86_64,60.0528465,,,,,,,,,,,,,,,,,,,,,
,,,,,,1,0,1,0,1,0,001,2022-05-05_10h28.03.520,Digit Span Task,2021.2.3,Linux x86_64,60.0528465,,,,,,,,,,,,,,,,,,,,,
,,,,,,2,0,2,0,1,0,001,2022-05-05_10h28.03.520,Digit Span Task,2021.2.3,Linux x86_64,60.0528465,,,,,,,,,,,,,,,,,,,,,
,,,,,,,,,,,0,001,2022-05-05_10h28.03.520,Digit Span Task,2021.2.3,Linux x86_64,60.0528465,760,1,-0.027262131,-0.407710552,1,0,0,cont_button,0,2,2,2,1,3,760,,,,,,
,,,,,,,,,,,0,001,2022-05-05_10h28.03.520,Digit Span Task,2021.2.3,Linux x86_64,60.0528465,,,,,,,,,,,,,,,,1,0,10,0,1,three.xlsx
,,,,,,0,0,0,0,1,0,001,2022-05-05_10h28.03.520,Digit Span Task,2021.2.3,Linux x86_64,60.0528465,,,,,,,,,,,,,,,,,,,,,
,,,,,,1,0,1,0,1,0,001,2022-05-05_10h28.03.520,Digit Span Task,2021.2.3,Linux x86_64,60.0528465,,,,,,,,,,,,,,,,,,,,,
,,,,,,2,0,2,0,1,0,001,2022-05-05_10h28.03.520,Digit Span Task,2021.2.3,Linux x86_64,60.0528465,,,,,,,,,,,,,,,,,,,,,
,,,,,,3,0,3,0,1,0,001,2022-05-05_10h28.03.520,Digit Span Task,2021.2.3,Linux x86_64,60.0528465,,,,,,,,,,,,,,,,,,,,,
,,,,,,,,,,,0,001,2022-05-05_10h28.03.520,Digit Span Task,2021.2.3,Linux x86_64,60.0528465,3141,1,0.002443473,-0.385601362,1,0,0,cont_button,0,0,0,0,1,4,3141,,,,,,
,,,,,,0,0,0,0,1,0,001,2022-05-05_10h28.03.520,Digit Span Task,2021.2.3,Linux x86_64,60.0528465,,,,,,,,,,,,,,,,,,,,,
,,,,,,1,0,1,0,1,0,001,2022-05-05_10h28.03.520,Digit Span Task,2021.2.3,Linux x86_64,60.0528465,,,,,,,,,,,,,,,,,,,,,
,,,,,,2,0,2,0,1,0,001,2022-05-05_10h28.03.520,Digit Span Task,2021.2.3,Linux x86_64,60.0528465,,,,,,,,,,,,,,,,,,,,,
,,,,,,3,0,3,0,1,0,001,2022-05-05_10h28.03.520,Digit Span Task,2021.2.3,Linux x86_64,60.0528465,,,,,,,,,,,,,,,,,,,,,
,,,,,,,,,,,0,001,2022-05-05_10h28.03.520,Digit Span Task,2021.2.3,Linux x86_64,60.0528465,"6351
",0,0.003757238,-0.388229291,1,0,0,cont_button,0,1,1,1,1,4,6351,,,,,,
,,,,,,0,0,0,0,1,0,001,2022-05-05_10h28.03.520,Digit Span Task,2021.2.3,Linux x86_64,60.0528465,,,,,,,,,,,,,,,,,,,,,
,,,,,,1,0,1,0,1,0,001,2022-05-05_10h28.03.520,Digit Span Task,2021.2.3,Linux x86_64,60.0528465,,,,,,,,,,,,,,,,,,,,,
,,,,,,2,0,2,0,1,0,001,2022-05-05_10h28.03.520,Digit Span Task,2021.2.3,Linux x86_64,60.0528465,,,,,,,,,,,,,,,,,,,,,
,,,,,,3,0,3,0,1,0,001,2022-05-05_10h28.03.520,Digit Span Task,2021.2.3,Linux x86_64,60.0528465,,,,,,,,,,,,,,,,,,,,,
,,,,,,,,,,,0,001,2022-05-05_10h28.03.520,Digit Span Task,2021.2.3,Linux x86_64,60.0528465,2391,1,0.003757238,-0.388229291,1,0,0,cont_button,0,2,2,2,1,4,2391,,,,,,
,,,,,,,,,,,0,001,2022-05-05_10h28.03.520,Digit Span Task,2021.2.3,Linux x86_64,60.0528465,,,,,,,,,,,,,,,,1,1,11,1,1,four.xlsx
,,,,,,0,0,0,0,1,0,001,2022-05-05_10h28.03.520,Digit Span Task,2021.2.3,Linux x86_64,60.0528465,,,,,,,,,,,,,,,,,,,,,
,,,,,,1,0,1,0,1,0,001,2022-05-05_10h28.03.520,Digit Span Task,2021.2.3,Linux x86_64,60.0528465,,,,,,,,,,,,,,,,,,,,,
,,,,,,2,0,2,0,1,0,001,2022-05-05_10h28.03.520,Digit Span Task,2021.2.3,Linux x86_64,60.0528465,,,,,,,,,,,,,,,,,,,,,
,,,,,,3,0,3,0,1,0,001,2022-05-05_10h28.03.520,Digit Span Task,2021.2.3,Linux x86_64,60.0528465,,,,,,,,,,,,,,,,,,,,,
,,,,,,4,0,4,0,1,0,001,2022-05-05_10h28.03.520,Digit Span Task,2021.2.3,Linux x86_64,60.0528465,,,,,,,,,,,,,,,,,,,,,
,,,,,,,,,,,0,001,2022-05-05_10h28.03.520,Digit Span Task,2021.2.3,Linux x86_64,60.0528465,14932,1,0.003757238,-0.388229291,1,0,0,cont_button,0,0,0,0,1,5,14932,,,,,,
,,,,,,0,0,0,0,1,0,001,2022-05-05_10h28.03.520,Digit Span Task,2021.2.3,Linux x86_64,60.0528465,,,,,,,,,,,,,,,,,,,,,
,,,,,,1,0,1,0,1,0,001,2022-05-05_10h28.03.520,Digit Span Task,2021.2.3,Linux x86_64,60.0528465,,,,,,,,,,,,,,,,,,,,,
,,,,,,2,0,2,0,1,0,001,2022-05-05_10h28.03.520,Digit Span Task,2021.2.3,Linux x86_64,60.0528465,,,,,,,,,,,,,,,,,,,,,
,,,,,,3,0,3,0,1,0,001,2022-05-05_10h28.03.520,Digit Span Task,2021.2.3,Linux x86_64,60.0528465,,,,,,,,,,,,,,,,,,,,,
,,,,,,4,0,4,0,1,0,001,2022-05-05_10h28.03.520,Digit Span Task,2021.2.3,Linux x86_64,60.0528465,,,,,,,,,,,,,,,,,,,,,
,,,,,,,,,,,0,001,2022-05-05_10h28.03.520,Digit Span Task,2021.2.3,Linux x86_64,60.0528465,10646,1,0.003757238,-0.388229291,1,0,0,cont_button,0,1,1,1,1,5,10646,,,,,,
,,,,,,0,0,0,0,1,0,001,2022-05-05_10h28.03.520,Digit Span Task,2021.2.3,Linux x86_64,60.0528465,,,,,,,,,,,,,,,,,,,,,
,,,,,,1,0,1,0,1,0,001,2022-05-05_10h28.03.520,Digit Span Task,2021.2.3,Linux x86_64,60.0528465,,,,,,,,,,,,,,,,,,,,,
,,,,,,2,0,2,0,1,0,001,2022-05-05_10h28.03.520,Digit Span Task,2021.2.3,Linux x86_64,60.0528465,,,,,,,,,,,,,,,,,,,,,
,,,,,,3,0,3,0,1,0,001,2022-05-05_10h28.03.520,Digit Span Task,2021.2.3,Linux x86_64,60.0528465,,,,,,,,,,,,,,,,,,,,,
,,,,,,4,0,4,0,1,0,001,2022-05-05_10h28.03.520,Digit Span Task,2021.2.3,Linux x86_64,60.0528465,,,,,,,,,,,,,,,,,,,,,
,,,,,,,,,,,0,001,2022-05-05_10h28.03.520,Digit Span Task,2021.2.3,Linux x86_64,60.0528465,74832,1,0.003757238,-0.388229291,1,0,0,cont_button,0,2,2,2,1,5,74832,,,,,,
,,,,,,,,,,,0,001,2022-05-05_10h28.03.520,Digit Span Task,2021.2.3,Linux x86_64,60.0528465,,,,,,,,,,,,,,,,1,2,12,2,1,five.xlsx
,,,,,,0,0,0,0,1,0,001,2022-05-05_10h28.03.520,Digit Span Task,2021.2.3,Linux x86_64,60.0528465,,,,,,,,,,,,,,,,,,,,,
,,,,,,1,0,1,0,1,0,001,2022-05-05_10h28.03.520,Digit Span Task,2021.2.3,Linux x86_64,60.0528465,,,,,,,,,,,,,,,,,,,,,
,,,,,,2,0,2,0,1,0,001,2022-05-05_10h28.03.520,Digit Span Task,2021.2.3,Linux x86_64,60.0528465,,,,,,,,,,,,,,,,,,,,,
,,,,,,3,0,3,0,1,0,001,2022-05-05_10h28.03.520,Digit Span Task,2021.2.3,Linux x86_64,60.0528465,,,,,,,,,,,,,,,,,,,,,
,,,,,,4,0,4,0,1,0,001,2022-05-05_10h28.03.520,Digit Span Task,2021.2.3,Linux x86_64,60.0528465,,,,,,,,,,,,,,,,,,,,,
,,,,,,5,0,5,0,1,0,001,2022-05-05_10h28.03.520,Digit Span Task,2021.2.3,Linux x86_64,60.0528465,,,,,,,,,,,,,,,,,,,,,
,,,,,,,,,,,0,001,2022-05-05_10h28.03.520,Digit Span Task,2021.2.3,Linux x86_64,60.0528465,934648,1,0.003757238,-0.388229291,1,0,0,cont_button,0,0,0,0,1,6,934648,,,,,,
,,,,,,0,0,0,0,1,0,001,2022-05-05_10h28.03.520,Digit Span Task,2021.2.3,Linux x86_64,60.0528465,,,,,,,,,,,,,,,,,,,,,
,,,,,,1,0,1,0,1,0,001,2022-05-05_10h28.03.520,Digit Span Task,2021.2.3,Linux x86_64,60.0528465,,,,,,,,,,,,,,,,,,,,,
,,,,,,2,0,2,0,1,0,001,2022-05-05_10h28.03.520,Digit Span Task,2021.2.3,Linux x86_64,60.0528465,,,,,,,,,,,,,,,,,,,,,
,,,,,,3,0,3,0,1,0,001,2022-05-05_10h28.03.520,Digit Span Task,2021.2.3,Linux x86_64,60.0528465,,,,,,,,,,,,,,,,,,,,,
,,,,,,4,0,4,0,1,0,001,2022-05-05_10h28.03.520,Digit Span Task,2021.2.3,Linux x86_64,60.0528465,,,,,,,,,,,,,,,,,,,,,
,,,,,,5,0,5,0,1,0,001,2022-05-05_10h28.03.520,Digit Span Task,2021.2.3,Linux x86_64,60.0528465,,,,,,,,,,,,,,,,,,,,,
,,,,,,,,,,,0,001,2022-05-05_10h28.03.520,Digit Span Task,2021.2.3,Linux x86_64,60.0528465,179390,1,0.004490693,-0.42114536,1,0,0,cont_button,0,1,1,1,1,6,179390,,,,,,
,,,,,,0,0,0,0,1,0,001,2022-05-05_10h28.03.520,Digit Span Task,2021.2.3,Linux x86_64,60.0528465,,,,,,,,,,,,,,,,,,,,,
,,,,,,1,0,1,0,1,0,001,2022-05-05_10h28.03.520,Digit Span Task,2021.2.3,Linux x86_64,60.0528465,,,,,,,,,,,,,,,,,,,,,
,,,,,,2,0,2,0,1,0,001,2022-05-05_10h28.03.520,Digit Span Task,2021.2.3,Linux x86_64,60.0528465,,,,,,,,,,,,,,,,,,,,,
,,,,,,3,0,3,0,1,0,001,2022-05-05_10h28.03.520,Digit Span Task,2021.2.3,Linux x86_64,60.0528465,,,,,,,,,,,,,,,,,,,,,
,,,,,,4,0,4,0,1,0,001,2022-05-05_10h28.03.520,Digit Span Task,2021.2.3,Linux x86_64,60.0528465,,,,,,,,,,,,,,,,,,,,,
,,,,,,5,0,5,0,1,0,001,2022-05-05_10h28.03.520,Digit Span Task,2021.2.3,Linux x86_64,60.0528465,,,,,,,,,,,,,,,,,,,,,
,,,,,,,,,,,0,001,2022-05-05_10h28.03.520,Digit Span Task,2021.2.3,Linux x86_64,60.0528465,408288,1,0.004490693,-0.42114536,1,0,0,cont_button,0,2,2,2,1,6,408288,,,,,,
,,,,,,,,,,,0,001,2022-05-05_10h28.03.520,Digit Span Task,2021.2.3,Linux x86_64,60.0528465,,,,,,,,,,,,,,,,1,3,13,3,1,six.xlsx
,,,,,,0,0,0,0,1,0,001,2022-05-05_10h28.03.520,Digit Span Task,2021.2.3,Linux x86_64,60.0528465,,,,,,,,,,,,,,,,,,,,,
,,,,,,1,0,1,0,1,0,001,2022-05-05_10h28.03.520,Digit Span Task,2021.2.3,Linux x86_64,60.0528465,,,,,,,,,,,,,,,,,,,,,
,,,,,,2,0,2,0,1,0,001,2022-05-05_10h28.03.520,Digit Span Task,2021.2.3,Linux x86_64,60.0528465,,,,,,,,,,,,,,,,,,,,,
,,,,,,3,0,3,0,1,0,001,2022-05-05_10h28.03.520,Digit Span Task,2021.2.3,Linux x86_64,60.0528465,,,,,,,,,,,,,,,,,,,,,
,,,,,,4,0,4,0,1,0,001,2022-05-05_10h28.03.520,Digit Span Task,2021.2.3,Linux x86_64,60.0528465,,,,,,,,,,,,,,,,,,,,,
,,,,,,5,0,5,0,1,0,001,2022-05-05_10h28.03.520,Digit Span Task,2021.2.3,Linux x86_64,60.0528465,,,,,,,,,,,,,,,,,,,,,
,,,,,,6,0,6,0,1,0,001,2022-05-05_10h28.03.520,Digit Span Task,2021.2.3,Linux x86_64,60.0528465,,,,,,,,,,,,,,,,,,,,,
,,,,,,,,,,,0,001,2022-05-05_10h28.03.520,Digit Span Task,2021.2.3,Linux x86_64,60.0528465,,0,-0.005725925,-0.398816313,1,0,0,cont_button,0,0,0,0,1,7,4498237,,,,,,
,,,,,,0,0,0,0,1,0,001,2022-05-05_10h28.03.520,Digit Span Task,2021.2.3,Linux x86_64,60.0528465,,,,,,,,,,,,,,,,,,,,,
,,,,,,1,0,1,0,1,0,001,2022-05-05_10h28.03.520,Digit Span Task,2021.2.3,Linux x86_64,60.0528465,,,,,,,,,,,,,,,,,,,,,
