start_mouse.x,start_mouse.y,start_mouse.leftButton,start_mouse.midButton,start_mouse.rightButton,start_mouse.clicked_name,digitLoop.thisRepN,digitLoop.thisTrialN,digitLoop.thisN,digitLoop.thisIndex,digitLoop.ran,participant,session,date,expName,psychopyVersion,OS,frameRate,textbox.text,correct,mouse.x,mouse.y,mouse.leftButton,mouse.midButton,mouse.rightButton,mouse.clicked_name,trials.thisRepN,trials.thisTrialN,trials.thisN,trials.thisIndex,trials.ran,digitSpan,digits,blocks.thisRepN,blocks.thisTrialN,blocks.thisN,blocks.thisIndex,blocks.ran,condition_file
0.13534681,-0.405842463,1,0,0,cont_button,0,0,0,0,1,0,001,2022-04-27_15h11.01.553,Digit Span Task,2021.2.3,Linux x86_64,60.06006006,,,,,,,,,,,,,,,,,,,,,
,,,,,,1,0,1,0,1,0,001,2022-04-27_15h11.01.553,Digit Span Task,2021.2.3,Linux x86_64,60.06006006,,,,,,,,,,,,,,,,,,,,,
,,,,,,2,0,2,0,1,0,001,2022-04-27_15h11.01.553,Digit Span Task,2021.2.3,Linux x86_64,60.06006006,,,,,,,,,,,,,,,,,,,,,
,,,,,,,,,,,0,001,2022-04-27_15h11.01.553,Digit Span Task,2021.2.3,Linux x86_64,60.06006006,,0,0.084693988,-0.398947159,1,0,0,cont_button,0,0,0,0,1,3,217,,,,,,
,,,,,,0,0,0,0,1,0,001,2022-04-27_15h11.01.553,Digit Span Task,2021.2.3,Linux x86_64,60.06006006,,,,,,,,,,,,,,,,,,,,,
,,,,,,1,0,1,0,1,0,001,2022-04-27_15h11.01.553,Digit Span Task,2021.2.3,Linux x86_64,60.06006006,,,,,,,,,,,,,,,,,,,,,
,,,,,,2,0,2,0,1,0,001,2022-04-27_15h11.01.553,Digit Span Task,2021.2.3,Linux x86_64,60.06006006,,,,,,,,,,,,,,,,,,,,,
,,,,,,,,,,,0,001,2022-04-27_15h11.01.553,Digit Span Task,2021.2.3,Linux x86_64,60.06006006,987654321,0,0.110601584,-0.386896451,1,0,0,cont_button,0,1,1,1,1,3,486,,,,,,
,,,,,,0,0,0,0,1,0,001,2022-04-27_15h11.01.553,Digit Span Task,2021.2.3,Linux x86_64,60.06006006,,,,,,,,,,,,,,,,,,,,,
,,,,,,1,0,1,0,1,0,001,2022-04-27_15h11.01.553,Digit Span Task,2021.2.3,Linux x86_64,60.06006006,,,,,,,,,,,,,,,,,,,,,
,,,,,,2,0,2,0,1,0,001,2022-04-27_15h11.01.553,Digit Span Task,2021.2.3,Linux x86_64,60.06006006,,,,,,,,,,,,,,,,,,,,,
,,,,,,,,,,,0,001,2022-04-27_15h11.01.553,Digit Span Task,2021.2.3,Linux x86_64,60.06006006,760,1,0.078759591,-0.38739864,1,0,0,cont_button,0,2,2,2,1,3,760,,,,,,
,,,,,,,,,,,0,001,2022-04-27_15h11.01.553,Digit Span Task,2021.2.3,Linux x86_64,60.06006006,,,,,,,,,,,,,,,,0,0,0,0,1,three.xlsx
,,,,,,0,0,0,0,1,0,001,2022-04-27_15h11.01.553,Digit Span Task,2021.2.3,Linux x86_64,60.06006006,,,,,,,,,,,,,,,,,,,,,
,,,,,,1,0,1,0,1,0,001,2022-04-27_15h11.01.553,Digit Span Task,2021.2.3,Linux x86_64,60.06006006,,,,,,,,,,,,,,,,,,,,,
,,,,,,2,0,2,0,1,0,001,2022-04-27_15h11.01.553,Digit Span Task,2021.2.3,Linux x86_64,60.06006006,,,,,,,,,,,,,,,,,,,,,
,,,,,,3,0,3,0,1,0,001,2022-04-27_15h11.01.553,Digit Span Task,2021.2.3,Linux x86_64,60.06006006,,,,,,,,,,,,,,,,,,,,,
,,,,,,,,,,,0,001,2022-04-27_15h11.01.553,Digit Span Task,2021.2.3,Linux x86_64,60.06006006,3414,0,0.137944221,-0.429437955,1,0,0,cont_button,0,0,0,0,1,4,3141,,,,,,
,,,,,,0,0,0,0,1,0,001,2022-04-27_15h11.01.553,Digit Span Task,2021.2.3,Linux x86_64,60.06006006,,,,,,,,,,,,,,,,,,,,,
,,,,,,1,0,1,0,1,0,001,2022-04-27_15h11.01.553,Digit Span Task,2021.2.3,Linux x86_64,60.06006006,,,,,,,,,,,,,,,,,,,,,
,,,,,,2,0,2,0,1,0,001,2022-04-27_15h11.01.553,Digit Span Task,2021.2.3,Linux x86_64,60.06006006,,,,,,,,,,,,,,,,,,,,,
,,,,,,3,0,3,0,1,0,001,2022-04-27_15h11.01.553,Digit Span Task,2021.2.3,Linux x86_64,60.06006006,,,,,,,,,,,,,,,,,,,,,
,,,,,,,,,,,0,001,2022-04-27_15h11.01.553,Digit Span Task,2021.2.3,Linux x86_64,60.06006006,6351,1,0.075911681,-0.400926828,1,0,0,cont_button,0,1,1,1,1,4,6351,,,,,,
,,,,,,0,0,0,0,1,0,001,2022-04-27_15h11.01.553,Digit Span Task,2021.2.3,Linux x86_64,60.06006006,,,,,,,,,,,,,,,,,,,,,
,,,,,,1,0,1,0,1,0,001,2022-04-27_15h11.01.553,Digit Span Task,2021.2.3,Linux x86_64,60.06006006,,,,,,,,,,,,,,,,,,,,,
,,,,,,2,0,2,0,1,0,001,2022-04-27_15h11.01.553,Digit Span Task,2021.2.3,Linux x86_64,60.06006006,,,,,,,,,,,,,,,,,,,,,
,,,,,,3,0,3,0,1,0,001,2022-04-27_15h11.01.553,Digit Span Task,2021.2.3,Linux x86_64,60.06006006,,,,,,,,,,,,,,,,,,,,,
,,,,,,,,,,,0,001,2022-04-27_15h11.01.553,Digit Span Task,2021.2.3,Linux x86_64,60.06006006,2391,1,0.076470534,-0.389399926,1,0,0,cont_button,0,2,2,2,1,4,2391,,,,,,
,,,,,,,,,,,0,001,2022-04-27_15h11.01.553,Digit Span Task,2021.2.3,Linux x86_64,60.06006006,,,,,,,,,,,,,,,,0,1,1,1,1,four.xlsx
,,,,,,0,0,0,0,1,0,001,2022-04-27_15h11.01.553,Digit Span Task,2021.2.3,Linux x86_64,60.06006006,,,,,,,,,,,,,,,,,,,,,
,,,,,,1,0,1,0,1,0,001,2022-04-27_15h11.01.553,Digit Span Task,2021.2.3,Linux x86_64,60.06006006,,,,,,,,,,,,,,,,,,,,,
,,,,,,2,0,2,0,1,0,001,2022-04-27_15h11.01.553,Digit Span Task,2021.2.3,Linux x86_64,60.06006006,,,,,,,,,,,,,,,,,,,,,
,,,,,,3,0,3,0,1,0,001,2022-04-27_15h11.01.553,Digit Span Task,2021.2.3,Linux x86_64,60.06006006,,,,,,,,,,,,,,,,,,,,,
,,,,,,4,0,4,0,1,0,001,2022-04-27_15h11.01.553,Digit Span Task,2021.2.3,Linux x86_64,60.06006006,,,,,,,,,,,,,,,,,,,,,
,,,,,,,,,,,0,001,2022-04-27_15h11.01.553,Digit Span Task,2021.2.3,Linux x86_64,60.06006006,14932,1,0.033211867,-0.392817656,1,0,0,cont_button,0,0,0,0,1,5,14932,,,,,,
,,,,,,0,0,0,0,1,0,001,2022-04-27_15h11.01.553,Digit Span Task,2021.2.3,Linux x86_64,60.06006006,,,,,,,,,,,,,,,,,,,,,
,,,,,,1,0,1,0,1,0,001,2022-04-27_15h11.01.553,Digit Span Task,2021.2.3,Linux x86_64,60.06006006,,,,,,,,,,,,,,,,,,,,,
,,,,,,2,0,2,0,1,0,001,2022-04-27_15h11.01.553,Digit Span Task,2021.2.3,Linux x86_64,60.06006006,,,,,,,,,,,,,,,,,,,,,
,,,,,,3,0,3,0,1,0,001,2022-04-27_15h11.01.553,Digit Span Task,2021.2.3,Linux x86_64,60.06006006,,,,,,,,,,,,,,,,,,,,,
,,,,,,4,0,4,0,1,0,001,2022-04-27_15h11.01.553,Digit Span Task,2021.2.3,Linux x86_64,60.06006006,,,,,,,,,,,,,,,,,,,,,
,,,,,,,,,,,0,001,2022-04-27_15h11.01.553,Digit Span Task,2021.2.3,Linux x86_64,60.06006006,10646,1,0.03008763,-0.428400119,1,0,0,cont_button,0,1,1,1,1,5,10646,,,,,,
,,,,,,0,0,0,0,1,0,001,2022-04-27_15h11.01.553,Digit Span Task,2021.2.3,Linux x86_64,60.06006006,,,,,,,,,,,,,,,,,,,,,
,,,,,,1,0,1,0,1,0,001,2022-04-27_15h11.01.553,Digit Span Task,2021.2.3,Linux x86_64,60.06006006,,,,,,,,,,,,,,,,,,,,,
,,,,,,2,0,2,0,1,0,001,2022-04-27_15h11.01.553,Digit Span Task,2021.2.3,Linux x86_64,60.06006006,,,,,,,,,,,,,,,,,,,,,
,,,,,,3,0,3,0,1,0,001,2022-04-27_15h11.01.553,Digit Span Task,2021.2.3,Linux x86_64,60.06006006,,,,,,,,,,,,,,,,,,,,,
,,,,,,4,0,4,0,1,0,001,2022-04-27_15h11.01.553,Digit Span Task,2021.2.3,Linux x86_64,60.06006006,,,,,,,,,,,,,,,,,,,,,
,,,,,,,,,,,0,001,2022-04-27_15h11.01.553,Digit Span Task,2021.2.3,Linux x86_64,60.06006006,74832,1,0.049939076,-0.412453016,1,0,0,cont_button,0,2,2,2,1,5,74832,,,,,,
,,,,,,,,,,,0,001,2022-04-27_15h11.01.553,Digit Span Task,2021.2.3,Linux x86_64,60.06006006,,,,,,,,,,,,,,,,0,2,2,2,1,five.xlsx
,,,,,,0,0,0,0,1,0,001,2022-04-27_15h11.01.553,Digit Span Task,2021.2.3,Linux x86_64,60.06006006,,,,,,,,,,,,,,,,,,,,,
,,,,,,1,0,1,0,1,0,001,2022-04-27_15h11.01.553,Digit Span Task,2021.2.3,Linux x86_64,60.06006006,,,,,,,,,,,,,,,,,,,,,
,,,,,,2,0,2,0,1,0,001,2022-04-27_15h11.01.553,Digit Span Task,2021.2.3,Linux x86_64,60.06006006,,,,,,,,,,,,,,,,,,,,,
,,,,,,3,0,3,0,1,0,001,2022-04-27_15h11.01.553,Digit Span Task,2021.2.3,Linux x86_64,60.06006006,,,,,,,,,,,,,,,,,,,,,
,,,,,,4,0,4,0,1,0,001,2022-04-27_15h11.01.553,Digit Span Task,2021.2.3,Linux x86_64,60.06006006,,,,,,,,,,,,,,,,,,,,,
,,,,,,5,0,5,0,1,0,001,2022-04-27_15h11.01.553,Digit Span Task,2021.2.3,Linux x86_64,60.06006006,,,,,,,,,,,,,,,,,,,,,
,,,,,,,,,,,0,001,2022-04-27_15h11.01.553,Digit Span Task,2021.2.3,Linux x86_64,60.06006006,94368,0,-0.04819123,-0.37732029,1,0,0,cont_button,0,0,0,0,1,6,934648,,,,,,
,,,,,,0,0,0,0,1,0,001,2022-04-27_15h11.01.553,Digit Span Task,2021.2.3,Linux x86_64,60.06006006,,,,,,,,,,,,,,,,,,,,,
,,,,,,1,0,1,0,1,0,001,2022-04-27_15h11.01.553,Digit Span Task,2021.2.3,Linux x86_64,60.06006006,,,,,,,,,,,,,,,,,,,,,
,,,,,,2,0,2,0,1,0,001,2022-04-27_15h11.01.553,Digit Span Task,2021.2.3,Linux x86_64,60.06006006,,,,,,,,,,,,,,,,,,,,,
,,,,,,3,0,3,0,1,0,001,2022-04-27_15h11.01.553,Digit Span Task,2021.2.3,Linux x86_64,60.06006006,,,,,,,,,,,,,,,,,,,,,
,,,,,,4,0,4,0,1,0,001,2022-04-27_15h11.01.553,Digit Span Task,2021.2.3,Linux x86_64,60.06006006,,,,,,,,,,,,,,,,,,,,,
,,,,,,5,0,5,0,1,0,001,2022-04-27_15h11.01.553,Digit Span Task,2021.2.3,Linux x86_64,60.06006006,,,,,,,,,,,,,,,,,,,,,
,,,,,,,,,,,0,001,2022-04-27_15h11.01.553,Digit Span Task,2021.2.3,Linux x86_64,60.06006006,179390,1,-0.04240799,-0.428417524,1,0,0,cont_button,0,1,1,1,1,6,179390,,,,,,
,,,,,,0,0,0,0,1,0,001,2022-04-27_15h11.01.553,Digit Span Task,2021.2.3,Linux x86_64,60.06006006,,,,,,,,,,,,,,,,,,,,,
,,,,,,1,0,1,0,1,0,001,2022-04-27_15h11.01.553,Digit Span Task,2021.2.3,Linux x86_64,60.06006006,,,,,,,,,,,,,,,,,,,,,
,,,,,,2,0,2,0,1,0,001,2022-04-27_15h11.01.553,Digit Span Task,2021.2.3,Linux x86_64,60.06006006,,,,,,,,,,,,,,,,,,,,,
,,,,,,3,0,3,0,1,0,001,2022-04-27_15h11.01.553,Digit Span Task,2021.2.3,Linux x86_64,60.06006006,,,,,,,,,,,,,,,,,,,,,
,,,,,,4,0,4,0,1,0,001,2022-04-27_15h11.01.553,Digit Span Task,2021.2.3,Linux x86_64,60.06006006,,,,,,,,,,,,,,,,,,,,,
,,,,,,5,0,5,0,1,0,001,2022-04-27_15h11.01.553,Digit Span Task,2021.2.3,Linux x86_64,60.06006006,,,,,,,,,,,,,,,,,,,,,
,,,,,,,,,,,0,001,2022-04-27_15h11.01.553,Digit Span Task,2021.2.3,Linux x86_64,60.06006006,174842,0,-0.042629083,-0.415828228,1,0,0,cont_button,0,2,2,2,1,6,408288,,,,,,
,,,,,,,,,,,0,001,2022-04-27_15h11.01.553,Digit Span Task,2021.2.3,Linux x86_64,60.06006006,,,,,,,,,,,,,,,,0,3,3,3,1,six.xlsx
,,,,,,0,0,0,0,1,0,001,2022-04-27_15h11.01.553,Digit Span Task,2021.2.3,Linux x86_64,60.06006006,,,,,,,,,,,,,,,,,,,,,
,,,,,,1,0,1,0,1,0,001,2022-04-27_15h11.01.553,Digit Span Task,2021.2.3,Linux x86_64,60.06006006,,,,,,,,,,,,,,,,,,,,,
,,,,,,2,0,2,0,1,0,001,2022-04-27_15h11.01.553,Digit Span Task,2021.2.3,Linux x86_64,60.06006006,,,,,,,,,,,,,,,,,,,,,
,,,,,,3,0,3,0,1,0,001,2022-04-27_15h11.01.553,Digit Span Task,2021.2.3,Linux x86_64,60.06006006,,,,,,,,,,,,,,,,,,,,,
,,,,,,4,0,4,0,1,0,001,2022-04-27_15h11.01.553,Digit Span Task,2021.2.3,Linux x86_64,60.06006006,,,,,,,,,,,,,,,,,,,,,
,,,,,,5,0,5,0,1,0,001,2022-04-27_15h11.01.553,Digit Span Task,2021.2.3,Linux x86_64,60.06006006,,,,,,,,,,,,,,,,,,,,,
,,,,,,6,0,6,0,1,0,001,2022-04-27_15h11.01.553,Digit Span Task,2021.2.3,Linux x86_64,60.06006006,,,,,,,,,,,,,,,,,,,,,
,,,,,,,,,,,0,001,2022-04-27_15h11.01.553,Digit Span Task,2021.2.3,Linux x86_64,60.06006006,449827,0,0.047570626,-0.425937494,1,0,0,cont_button,0,0,0,0,1,7,4498237,,,,,,
,,,,,,0,0,0,0,1,0,001,2022-04-27_15h11.01.553,Digit Span Task,2021.2.3,Linux x86_64,60.06006006,,,,,,,,,,,,,,,,,,,,,
,,,,,,1,0,1,0,1,0,001,2022-04-27_15h11.01.553,Digit Span Task,2021.2.3,Linux x86_64,60.06006006,,,,,,,,,,,,,,,,,,,,,
,,,,,,2,0,2,0,1,0,001,2022-04-27_15h11.01.553,Digit Span Task,2021.2.3,Linux x86_64,60.06006006,,,,,,,,,,,,,,,,,,,,,
,,,,,,3,0,3,0,1,0,001,2022-04-27_15h11.01.553,Digit Span Task,2021.2.3,Linux x86_64,60.06006006,,,,,,,,,,,,,,,,,,,,,
,,,,,,4,0,4,0,1,0,001,2022-04-27_15h11.01.553,Digit Span Task,2021.2.3,Linux x86_64,60.06006006,,,,,,,,,,,,,,,,,,,,,
,,,,,,5,0,5,0,1,0,001,2022-04-27_15h11.01.553,Digit Span Task,2021.2.3,Linux x86_64,60.06006006,,,,,,,,,,,,,,,,,,,,,
,,,,,,6,0,6,0,1,0,001,2022-04-27_15h11.01.553,Digit Span Task,2021.2.3,Linux x86_64,60.06006006,,,,,,,,,,,,,,,,,,,,,
,,,,,,,,,,,0,001,2022-04-27_15h11.01.553,Digit Span Task,2021.2.3,Linux x86_64,60.06006006,444371,0,-0.005552689,-0.389856339,1,0,0,cont_button,0,1,1,1,1,7,2544371,,,,,,
,,,,,,0,0,0,0,1,0,001,2022-04-27_15h11.01.553,Digit Span Task,2021.2.3,Linux x86_64,60.06006006,,,,,,,,,,,,,,,,,,,,,
,,,,,,1,0,1,0,1,0,001,2022-04-27_15h11.01.553,Digit Span Task,2021.2.3,Linux x86_64,60.06006006,,,,,,,,,,,,,,,,,,,,,
,,,,,,2,0,2,0,1,0,001,2022-04-27_15h11.01.553,Digit Span Task,2021.2.3,Linux x86_64,60.06006006,,,,,,,,,,,,,,,,,,,,,
,,,,,,3,0,3,0,1,0,001,2022-04-27_15h11.01.553,Digit Span Task,2021.2.3,Linux x86_64,60.06006006,,,,,,,,,,,,,,,,,,,,,
,,,,,,4,0,4,0,1,0,001,2022-04-27_15h11.01.553,Digit Span Task,2021.2.3,Linux x86_64,60.06006006,,,,,,,,,,,,,,,,,,,,,
,,,,,,5,0,5,0,1,0,001,2022-04-27_15h11.01.553,Digit Span Task,2021.2.3,Linux x86_64,60.06006006,,,,,,,,,,,,,,,,,,,,,
,,,,,,6,0,6,0,1,0,001,2022-04-27_15h11.01.553,Digit Span Task,2021.2.3,Linux x86_64,60.06006006,,,,,,,,,,,,,,,,,,,,,
,,,,,,,,,,,0,001,2022-04-27_15h11.01.553,Digit Span Task,2021.2.3,Linux x86_64,60.06006006,87750508,0,0.022745053,-0.403845072,1,0,0,cont_button,0,2,2,2,1,7,8875085,,,,,,
,,,,,,,,,,,0,001,2022-04-27_15h11.01.553,Digit Span Task,2021.2.3,Linux x86_64,60.06006006,,,,,,,,,,,,,,,,0,4,4,4,1,seven.xlsx
,,,,,,0,0,0,0,1,0,001,2022-04-27_15h11.01.553,Digit Span Task,2021.2.3,Linux x86_64,60.06006006,,,,,,,,,,,,,,,,,,,,,
,,,,,,1,0,1,0,1,0,001,2022-04-27_15h11.01.553,Digit Span Task,2021.2.3,Linux x86_64,60.06006006,,,,,,,,,,,,,,,,,,,,,
,,,,,,2,0,2,0,1,0,001,2022-04-27_15h11.01.553,Digit Span Task,2021.2.3,Linux x86_64,60.06006006,,,,,,,,,,,,,,,,,,,,,
,,,,,,3,0,3,0,1,0,001,2022-04-27_15h11.01.553,Digit Span Task,2021.2.3,Linux x86_64,60.06006006,,,,,,,,,,,,,,,,,,,,,
,,,,,,4,0,4,0,1,0,001,2022-04-27_15h11.01.553,Digit Span Task,2021.2.3,Linux x86_64,60.06006006,,,,,,,,,,,,,,,,,,,,,
,,,,,,5,0,5,0,1,0,001,2022-04-27_15h11.01.553,Digit Span Task,2021.2.3,Linux x86_64,60.06006006,,,,,,,,,,,,,,,,,,,,,
,,,,,,6,0,6,0,1,0,001,2022-04-27_15h11.01.553,Digit Span Task,2021.2.3,Linux x86_64,60.06006006,,,,,,,,,,,,,,,,,,,,,
,,,,,,7,0,7,0,1,0,001,2022-04-27_15h11.01.553,Digit Span Task,2021.2.3,Linux x86_64,60.06006006,,,,,,,,,,,,,,,,,,,,,
,,,,,,,,,,,0,001,2022-04-27_15h11.01.553,Digit Span Task,2021.2.3,Linux x86_64,60.06006006,44926904,0,0.054612319,-0.407357295,1,0,0,cont_button,0,0,0,0,1,8,46229408,,,,,,
,,,,,,0,0,0,0,1,0,001,2022-04-27_15h11.01.553,Digit Span Task,2021.2.3,Linux x86_64,60.06006006,,,,,,,,,,,,,,,,,,,,,
,,,,,,1,0,1,0,1,0,001,2022-04-27_15h11.01.553,Digit Span Task,2021.2.3,Linux x86_64,60.06006006,,,,,,,,,,,,,,,,,,,,,
,,,,,,2,0,2,0,1,0,001,2022-04-27_15h11.01.553,Digit Span Task,2021.2.3,Linux x86_64,60.06006006,,,,,,,,,,,,,,,,,,,,,
,,,,,,3,0,3,0,1,0,001,2022-04-27_15h11.01.553,Digit Span Task,2021.2.3,Linux x86_64,60.06006006,,,,,,,,,,,,,,,,,,,,,
,,,,,,4,0,4,0,1,0,001,2022-04-27_15h11.01.553,Digit Span Task,2021.2.3,Linux x86_64,60.06006006,,,,,,,,,,,,,,,,,,,,,
,,,,,,5,0,5,0,1,0,001,2022-04-27_15h11.01.553,Digit Span Task,2021.2.3,Linux x86_64,60.06006006,,,,,,,,,,,,,,,,,,,,,
,,,,,,6,0,6,0,1,0,001,2022-04-27_15h11.01.553,Digit Span Task,2021.2.3,Linux x86_64,60.06006006,,,,,,,,,,,,,,,,,,,,,
,,,,,,7,0,7,0,1,0,001,2022-04-27_15h11.01.553,Digit Span Task,2021.2.3,Linux x86_64,60.06006006,,,,,,,,,,,,,,,,,,,,,
,,,,,,,,,,,0,001,2022-04-27_15h11.01.553,Digit Span Task,2021.2.3,Linux x86_64,60.06006006,7096702,0,0.029826085,-0.415940126,1,0,0,cont_button,0,1,1,1,1,8,70967882,,,,,,
,,,,,,0,0,0,0,1,0,001,2022-04-27_15h11.01.553,Digit Span Task,2021.2.3,Linux x86_64,60.06006006,,,,,,,,,,,,,,,,,,,,,
,,,,,,1,0,1,0,1,0,001,2022-04-27_15h11.01.553,Digit Span Task,2021.2.3,Linux x86_64,60.06006006,,,,,,,,,,,,,,,,,,,,,
,,,,,,2,0,2,0,1,0,001,2022-04-27_15h11.01.553,Digit Span Task,2021.2.3,Linux x86_64,60.06006006,,,,,,,,,,,,,,,,,,,,,
,,,,,,3,0,3,0,1,0,001,2022-04-27_15h11.01.553,Digit Span Task,2021.2.3,Linux x86_64,60.06006006,,,,,,,,,,,,,,,,,,,,,
,,,,,,4,0,4,0,1,0,001,2022-04-27_15h11.01.553,Digit Span Task,2021.2.3,Linux x86_64,60.06006006,,,,,,,,,,,,,,,,,,,,,
,,,,,,5,0,5,0,1,0,001,2022-04-27_15h11.01.553,Digit Span Task,2021.2.3,Linux x86_64,60.06006006,,,,,,,,,,,,,,,,,,,,,
,,,,,,6,0,6,0,1,0,001,2022-04-27_15h11.01.553,Digit Span Task,2021.2.3,Linux x86_64,60.06006006,,,,,,,,,,,,,,,,,,,,,
,,,,,,7,0,7,0,1,0,001,2022-04-27_15h11.01.553,Digit Span Task,2021.2.3,Linux x86_64,60.06006006,,,,,,,,,,,,,,,,,,,,,
,,,,,,,,,,,0,001,2022-04-27_15h11.01.553,Digit Span Task,2021.2.3,Linux x86_64,60.06006006,2709234,0,0.06872948,-0.379542112,1,0,0,cont_button,0,2,2,2,1,8,27139320,,,,,,
,,,,,,,,,,,0,001,2022-04-27_15h11.01.553,Digit Span Task,2021.2.3,Linux x86_64,60.06006006,,,,,,,,,,,,,,,,0,5,5,5,1,eight.xlsx
,,,,,,0,0,0,0,1,0,001,2022-04-27_15h11.01.553,Digit Span Task,2021.2.3,Linux x86_64,60.06006006,,,,,,,,,,,,,,,,,,,,,
,,,,,,1,0,1,0,1,0,001,2022-04-27_15h11.01.553,Digit Span Task,2021.2.3,Linux x86_64,60.06006006,,,,,,,,,,,,,,,,,,,,,
,,,,,,2,0,2,0,1,0,001,2022-04-27_15h11.01.553,Digit Span Task,2021.2.3,Linux x86_64,60.06006006,,,,,,,,,,,,,,,,,,,,,
,,,,,,3,0,3,0,1,0,001,2022-04-27_15h11.01.553,Digit Span Task,2021.2.3,Linux x86_64,60.06006006,,,,,,,,,,,,,,,,,,,,,
,,,,,,4,0,4,0,1,0,001,2022-04-27_15h11.01.553,Digit Span Task,2021.2.3,Linux x86_64,60.06006006,,,,,,,,,,,,,,,,,,,,,
,,,,,,5,0,5,0,1,0,001,2022-04-27_15h11.01.553,Digit Span Task,2021.2.3,Linux x86_64,60.06006006,,,,,,,,,,,,,,,,,,,,,
,,,,,,6,0,6,0,1,0,001,2022-04-27_15h11.01.553,Digit Span Task,2021.2.3,Linux x86_64,60.06006006,,,,,,,,,,,,,,,,,,,,,
,,,,,,7,0,7,0,1,0,001,2022-04-27_15h11.01.553,Digit Span Task,2021.2.3,Linux x86_64,60.06006006,,,,,,,,,,,,,,,,,,,,,
,,,,,,8,0,8,0,1,0,001,2022-04-27_15h11.01.553,Digit Span Task,2021.2.3,Linux x86_64,60.06006006,,,,,,,,,,,,,,,,,,,,,
,,,,,,,,,,,0,001,2022-04-27_15h11.01.553,Digit Span Task,2021.2.3,Linux x86_64,60.06006006,368373467,0,0.071864684,-0.428619703,1,0,0,cont_button,0,0,0,0,1,9,368373442,,,,,,
,,,,,,0,0,0,0,1,0,001,2022-04-27_15h11.01.553,Digit Span Task,2021.2.3,Linux x86_64,60.06006006,,,,,,,,,,,,,,,,,,,,,
,,,,,,1,0,1,0,1,0,001,2022-04-27_15h11.01.553,Digit Span Task,2021.2.3,Linux x86_64,60.06006006,,,,,,,,,,,,,,,,,,,,,
,,,,,,2,0,2,0,1,0,001,2022-04-27_15h11.01.553,Digit Span Task,2021.2.3,Linux x86_64,60.06006006,,,,,,,,,,,,,,,,,,,,,
,,,,,,3,0,3,0,1,0,001,2022-04-27_15h11.01.553,Digit Span Task,2021.2.3,Linux x86_64,60.06006006,,,,,,,,,,,,,,,,,,,,,
,,,,,,4,0,4,0,1,0,001,2022-04-27_15h11.01.553,Digit Span Task,2021.2.3,Linux x86_64,60.06006006,,,,,,,,,,,,,,,,,,,,,
,,,,,,5,0,5,0,1,0,001,2022-04-27_15h11.01.553,Digit Span Task,2021.2.3,Linux x86_64,60.06006006,,,,,,,,,,,,,,,,,,,,,
,,,,,,6,0,6,0,1,0,001,2022-04-27_15h11.01.553,Digit Span Task,2021.2.3,Linux x86_64,60.06006006,,,,,,,,,,,,,,,,,,,,,
,,,,,,7,0,7,0,1,0,001,2022-04-27_15h11.01.553,Digit Span Task,2021.2.3,Linux x86_64,60.06006006,,,,,,,,,,,,,,,,,,,,,
,,,,,,8,0,8,0,1,0,001,2022-04-27_15h11.01.553,Digit Span Task,2021.2.3,Linux x86_64,60.06006006,,,,,,,,,,,,,,,,,,,,,
,,,,,,,,,,,0,001,2022-04-27_15h11.01.553,Digit Span Task,2021.2.3,Linux x86_64,60.06006006,57627043,0,0.041846832,-0.423909903,1,0,0,cont_button,0,1,1,1,1,9,576270919,,,,,,
,,,,,,0,0,0,0,1,0,001,2022-04-27_15h11.01.553,Digit Span Task,2021.2.3,Linux x86_64,60.06006006,,,,,,,,,,,,,,,,,,,,,
,,,,,,1,0,1,0,1,0,001,2022-04-27_15h11.01.553,Digit Span Task,2021.2.3,Linux x86_64,60.06006006,,,,,,,,,,,,,,,,,,,,,
,,,,,,2,0,2,0,1,0,001,2022-04-27_15h11.01.553,Digit Span Task,2021.2.3,Linux x86_64,60.06006006,,,,,,,,,,,,,,,,,,,,,
,,,,,,3,0,3,0,1,0,001,2022-04-27_15h11.01.553,Digit Span Task,2021.2.3,Linux x86_64,60.06006006,,,,,,,,,,,,,,,,,,,,,
,,,,,,4,0,4,0,1,0,001,2022-04-27_15h11.01.553,Digit Span Task,2021.2.3,Linux x86_64,60.06006006,,,,,,,,,,,,,,,,,,,,,
,,,,,,5,0,5,0,1,0,001,2022-04-27_15h11.01.553,Digit Span Task,2021.2.3,Linux x86_64,60.06006006,,,,,,,,,,,,,,,,,,,,,
,,,,,,6,0,6,0,1,0,001,2022-04-27_15h11.01.553,Digit Span Task,2021.2.3,Linux x86_64,60.06006006,,,,,,,,,,,,,,,,,,,,,
,,,,,,7,0,7,0,1,0,001,2022-04-27_15h11.01.553,Digit Span Task,2021.2.3,Linux x86_64,60.06006006,,,,,,,,,,,,,,,,,,,,,
,,,,,,8,0,8,0,1,0,001,2022-04-27_15h11.01.553,Digit Span Task,2021.2.3,Linux x86_64,60.06006006,,,,,,,,,,,,,,,,,,,,,
,,,,,,,,,,,0,001,2022-04-27_15h11.01.553,Digit Span Task,2021.2.3,Linux x86_64,60.06006006,6886756,0,0.105824232,-0.428107977,1,0,0,cont_button,0,2,2,2,1,9,688655957,,,,,,
,,,,,,,,,,,0,001,2022-04-27_15h11.01.553,Digit Span Task,2021.2.3,Linux x86_64,60.06006006,,,,,,,,,,,,,,,,0,6,6,6,1,nine.xlsx
,,,,,,0,0,0,0,1,0,001,2022-04-27_15h11.01.553,Digit Span Task,2021.2.3,Linux x86_64,60.06006006,,,,,,,,,,,,,,,,,,,,,
,,,,,,1,0,1,0,1,0,001,2022-04-27_15h11.01.553,Digit Span Task,2021.2.3,Linux x86_64,60.06006006,,,,,,,,,,,,,,,,,,,,,
,,,,,,2,0,2,0,1,0,001,2022-04-27_15h11.01.553,Digit Span Task,2021.2.3,Linux x86_64,60.06006006,,,,,,,,,,,,,,,,,,,,,
,,,,,,3,0,3,0,1,0,001,2022-04-27_15h11.01.553,Digit Span Task,2021.2.3,Linux x86_64,60.06006006,,,,,,,,,,,,,,,,,,,,,
,,,,,,4,0,4,0,1,0,001,2022-04-27_15h11.01.553,Digit Span Task,2021.2.3,Linux x86_64,60.06006006,,,,,,,,,,,,,,,,,,,,,
,,,,,,5,0,5,0,1,0,001,2022-04-27_15h11.01.553,Digit Span Task,2021.2.3,Linux x86_64,60.06006006,,,,,,,,,,,,,,,,,,,,,
,,,,,,6,0,6,0,1,0,001,2022-04-27_15h11.01.553,Digit Span Task,2021.2.3,Linux x86_64,60.06006006,,,,,,,,,,,,,,,,,,,,,
,,,,,,7,0,7,0,1,0,001,2022-04-27_15h11.01.553,Digit Span Task,2021.2.3,Linux x86_64,60.06006006,,,,,,,,,,,,,,,,,,,,,
,,,,,,8,0,8,0,1,0,001,2022-04-27_15h11.01.553,Digit Span Task,2021.2.3,Linux x86_64,60.06006006,,,,,,,,,,,,,,,,,,,,,
,,,,,,9,0,9,0,1,0,001,2022-04-27_15h11.01.553,Digit Span Task,2021.2.3,Linux x86_64,60.06006006,,,,,,,,,,,,,,,,,,,,,
,,,,,,,,,,,0,001,2022-04-27_15h11.01.553,Digit Span Task,2021.2.3,Linux x86_64,60.06006006,,0,0.105636597,-0.429421743,1,0,0,cont_button,0,0,0,0,1,10,6432900801,,,,,,
,,,,,,0,0,0,0,1,0,001,2022-04-27_15h11.01.553,Digit Span Task,2021.2.3,Linux x86_64,60.06006006,,,,,,,,,,,,,,,,,,,,,
,,,,,,1,0,1,0,1,0,001,2022-04-27_15h11.01.553,Digit Span Task,2021.2.3,Linux x86_64,60.06006006,,,,,,,,,,,,,,,,,,,,,
,,,,,,2,0,2,0,1,0,001,2022-04-27_15h11.01.553,Digit Span Task,2021.2.3,Linux x86_64,60.06006006,,,,,,,,,,,,,,,,,,,,,
,,,,,,3,0,3,0,1,0,001,2022-04-27_15h11.01.553,Digit Span Task,2021.2.3,Linux x86_64,60.06006006,,,,,,,,,,,,,,,,,,,,,
,,,,,,4,0,4,0,1,0,001,2022-04-27_15h11.01.553,Digit Span Task,2021.2.3,Linux x86_64,60.06006006,,,,,,,,,,,,,,,,,,,,,
,,,,,,5,0,5,0,1,0,001,2022-04-27_15h11.01.553,Digit Span Task,2021.2.3,Linux x86_64,60.06006006,,,,,,,,,,,,,,,,,,,,,
,,,,,,6,0,6,0,1,0,001,2022-04-27_15h11.01.553,Digit Span Task,2021.2.3,Linux x86_64,60.06006006,,,,,,,,,,,,,,,,,,,,,
,,,,,,7,0,7,0,1,0,001,2022-04-27_15h11.01.553,Digit Span Task,2021.2.3,Linux x86_64,60.06006006,,,,,,,,,,,,,,,,,,,,,
,,,,,,8,0,8,0,1,0,001,2022-04-27_15h11.01.553,Digit Span Task,2021.2.3,Linux x86_64,60.06006006,,,,,,,,,,,,,,,,,,,,,
,,,,,,9,0,9,0,1,0,001,2022-04-27_15h11.01.553,Digit Span Task,2021.2.3,Linux x86_64,60.06006006,,,,,,,,,,,,,,,,,,,,,
,,,,,,,,,,,0,001,2022-04-27_15h11.01.553,Digit Span Task,2021.2.3,Linux x86_64,60.06006006,846098763,0,0.048115492,-0.397575696,1,0,0,cont_button,0,1,1,1,1,10,8467348927,,,,,,
,,,,,,0,0,0,0,1,0,001,2022-04-27_15h11.01.553,Digit Span Task,2021.2.3,Linux x86_64,60.06006006,,,,,,,,,,,,,,,,,,,,,
,,,,,,1,0,1,0,1,0,001,2022-04-27_15h11.01.553,Digit Span Task,2021.2.3,Linux x86_64,60.06006006,,,,,,,,,,,,,,,,,,,,,
,,,,,,2,0,2,0,1,0,001,2022-04-27_15h11.01.553,Digit Span Task,2021.2.3,Linux x86_64,60.06006006,,,,,,,,,,,,,,,,,,,,,
,,,,,,3,0,3,0,1,0,001,2022-04-27_15h11.01.553,Digit Span Task,2021.2.3,Linux x86_64,60.06006006,,,,,,,,,,,,,,,,,,,,,
,,,,,,4,0,4,0,1,0,001,2022-04-27_15h11.01.553,Digit Span Task,2021.2.3,Linux x86_64,60.06006006,,,,,,,,,,,,,,,,,,,,,
,,,,,,5,0,5,0,1,0,001,2022-04-27_15h11.01.553,Digit Span Task,2021.2.3,Linux x86_64,60.06006006,,,,,,,,,,,,,,,,,,,,,
,,,,,,6,0,6,0,1,0,001,2022-04-27_15h11.01.553,Digit Span Task,2021.2.3,Linux x86_64,60.06006006,,,,,,,,,,,,,,,,,,,,,
,,,,,,7,0,7,0,1,0,001,2022-04-27_15h11.01.553,Digit Span Task,2021.2.3,Linux x86_64,60.06006006,,,,,,,,,,,,,,,,,,,,,
,,,,,,8,0,8,0,1,0,001,2022-04-27_15h11.01.553,Digit Span Task,2021.2.3,Linux x86_64,60.06006006,,,,,,,,,,,,,,,,,,,,,
,,,,,,9,0,9,0,1,0,001,2022-04-27_15h11.01.553,Digit Span Task,2021.2.3,Linux x86_64,60.06006006,,,,,,,,,,,,,,,,,,,,,
,,,,,,,,,,,0,001,2022-04-27_15h11.01.553,Digit Span Task,2021.2.3,Linux x86_64,60.06006006,4184464067,0,0.063299259,-0.39927872,1,0,0,cont_button,0,2,2,2,1,10,4184946413,,,,,,
,,,,,,,,,,,0,001,2022-04-27_15h11.01.553,Digit Span Task,2021.2.3,Linux x86_64,60.06006006,,,,,,,,,,,,,,,,0,7,7,7,1,ten.xlsx
,,,,,,0,0,0,0,1,0,001,2022-04-27_15h11.01.553,Digit Span Task,2021.2.3,Linux x86_64,60.06006006,,,,,,,,,,,,,,,,,,,,,
,,,,,,1,0,1,0,1,0,001,2022-04-27_15h11.01.553,Digit Span Task,2021.2.3,Linux x86_64,60.06006006,,,,,,,,,,,,,,,,,,,,,
,,,,,,2,0,2,0,1,0,001,2022-04-27_15h11.01.553,Digit Span Task,2021.2.3,Linux x86_64,60.06006006,,,,,,,,,,,,,,,,,,,,,
,,,,,,3,0,3,0,1,0,001,2022-04-27_15h11.01.553,Digit Span Task,2021.2.3,Linux x86_64,60.06006006,,,,,,,,,,,,,,,,,,,,,
,,,,,,4,0,4,0,1,0,001,2022-04-27_15h11.01.553,Digit Span Task,2021.2.3,Linux x86_64,60.06006006,,,,,,,,,,,,,,,,,,,,,
,,,,,,5,0,5,0,1,0,001,2022-04-27_15h11.01.553,Digit Span Task,2021.2.3,Linux x86_64,60.06006006,,,,,,,,,,,,,,,,,,,,,
,,,,,,6,0,6,0,1,0,001,2022-04-27_15h11.01.553,Digit Span Task,2021.2.3,Linux x86_64,60.06006006,,,,,,,,,,,,,,,,,,,,,
,,,,,,7,0,7,0,1,0,001,2022-04-27_15h11.01.553,Digit Span Task,2021.2.3,Linux x86_64,60.06006006,,,,,,,,,,,,,,,,,,,,,
,,,,,,8,0,8,0,1,0,001,2022-04-27_15h11.01.553,Digit Span Task,2021.2.3,Linux x86_64,60.06006006,,,,,,,,,,,,,,,,,,,,,
,,,,,,9,0,9,0,1,0,001,2022-04-27_15h11.01.553,Digit Span Task,2021.2.3,Linux x86_64,60.06006006,,,,,,,,,,,,,,,,,,,,,
,,,,,,10,0,10,0,1,0,001,2022-04-27_15h11.01.553,Digit Span Task,2021.2.3,Linux x86_64,60.06006006,,,,,,,,,,,,,,,,,,,,,
,,,,,,,,,,,0,001,2022-04-27_15h11.01.553,Digit Span Task,2021.2.3,Linux x86_64,60.06006006,732906,0,0.049905141,-0.377708832,1,0,0,cont_button,0,0,0,0,1,11,73290740563,,,,,,
,,,,,,0,0,0,0,1,0,001,2022-04-27_15h11.01.553,Digit Span Task,2021.2.3,Linux x86_64,60.06006006,,,,,,,,,,,,,,,,,,,,,
,,,,,,1,0,1,0,1,0,001,2022-04-27_15h11.01.553,Digit Span Task,2021.2.3,Linux x86_64,60.06006006,,,,,,,,,,,,,,,,,,,,,
,,,,,,2,0,2,0,1,0,001,2022-04-27_15h11.01.553,Digit Span Task,2021.2.3,Linux x86_64,60.06006006,,,,,,,,,,,,,,,,,,,,,
,,,,,,3,0,3,0,1,0,001,2022-04-27_15h11.01.553,Digit Span Task,2021.2.3,Linux x86_64,60.06006006,,,,,,,,,,,,,,,,,,,,,
,,,,,,4,0,4,0,1,0,001,2022-04-27_15h11.01.553,Digit Span Task,2021.2.3,Linux x86_64,60.06006006,,,,,,,,,,,,,,,,,,,,,
,,,,,,5,0,5,0,1,0,001,2022-04-27_15h11.01.553,Digit Span Task,2021.2.3,Linux x86_64,60.06006006,,,,,,,,,,,,,,,,,,,,,
,,,,,,6,0,6,0,1,0,001,2022-04-27_15h11.01.553,Digit Span Task,2021.2.3,Linux x86_64,60.06006006,,,,,,,,,,,,,,,,,,,,,
,,,,,,7,0,7,0,1,0,001,2022-04-27_15h11.01.553,Digit Span Task,2021.2.3,Linux x86_64,60.06006006,,,,,,,,,,,,,,,,,,,,,
,,,,,,8,0,8,0,1,0,001,2022-04-27_15h11.01.553,Digit Span Task,2021.2.3,Linux x86_64,60.06006006,,,,,,,,,,,,,,,,,,,,,
,,,,,,9,0,9,0,1,0,001,2022-04-27_15h11.01.553,Digit Span Task,2021.2.3,Linux x86_64,60.06006006,,,,,,,,,,,,,,,,,,,,,
,,,,,,10,0,10,0,1,0,001,2022-04-27_15h11.01.553,Digit Span Task,2021.2.3,Linux x86_64,60.06006006,,,,,,,,,,,,,,,,,,,,,
,,,,,,,,,,,0,001,2022-04-27_15h11.01.553,Digit Span Task,2021.2.3,Linux x86_64,60.06006006,7494278427,0,0.017830928,-0.38993899,1,0,0,cont_button,0,1,1,1,1,11,74948772224,,,,,,
,,,,,,0,0,0,0,1,0,001,2022-04-27_15h11.01.553,Digit Span Task,2021.2.3,Linux x86_64,60.06006006,,,,,,,,,,,,,,,,,,,,,
,,,,,,1,0,1,0,1,0,001,2022-04-27_15h11.01.553,Digit Span Task,2021.2.3,Linux x86_64,60.06006006,,,,,,,,,,,,,,,,,,,,,
,,,,,,2,0,2,0,1,0,001,2022-04-27_15h11.01.553,Digit Span Task,2021.2.3,Linux x86_64,60.06006006,,,,,,,,,,,,,,,,,,,,,
,,,,,,3,0,3,0,1,0,001,2022-04-27_15h11.01.553,Digit Span Task,2021.2.3,Linux x86_64,60.06006006,,,,,,,,,,,,,,,,,,,,,
,,,,,,4,0,4,0,1,0,001,2022-04-27_15h11.01.553,Digit Span Task,2021.2.3,Linux x86_64,60.06006006,,,,,,,,,,,,,,,,,,,,,
,,,,,,5,0,5,0,1,0,001,2022-04-27_15h11.01.553,Digit Span Task,2021.2.3,Linux x86_64,60.06006006,,,,,,,,,,,,,,,,,,,,,
,,,,,,6,0,6,0,1,0,001,2022-04-27_15h11.01.553,Digit Span Task,2021.2.3,Linux x86_64,60.06006006,,,,,,,,,,,,,,,,,,,,,
,,,,,,7,0,7,0,1,0,001,2022-04-27_15h11.01.553,Digit Span Task,2021.2.3,Linux x86_64,60.06006006,,,,,,,,,,,,,,,,,,,,,
,,,,,,8,0,8,0,1,0,001,2022-04-27_15h11.01.553,Digit Span Task,2021.2.3,Linux x86_64,60.06006006,,,,,,,,,,,,,,,,,,,,,
,,,,,,9,0,9,0,1,0,001,2022-04-27_15h11.01.553,Digit Span Task,2021.2.3,Linux x86_64,60.06006006,,,,,,,,,,,,,,,,,,,,,
,,,,,,10,0,10,0,1,0,001,2022-04-27_15h11.01.553,Digit Span Task,2021.2.3,Linux x86_64,60.06006006,,,,,,,,,,,,,,,,,,,,,
,,,,,,,,,,,0,001,2022-04-27_15h11.01.553,Digit Span Task,2021.2.3,Linux x86_64,60.06006006,970804067,0,0.02554965,-0.408232133,1,0,0,cont_button,0,2,2,2,1,11,97084622072,,,,,,
,,,,,,,,,,,0,001,2022-04-27_15h11.01.553,Digit Span Task,2021.2.3,Linux x86_64,60.06006006,,,,,,,,,,,,,,,,0,8,8,8,1,eleven.xlsx
,,,,,,0,0,0,0,1,0,001,2022-04-27_15h11.01.553,Digit Span Task,2021.2.3,Linux x86_64,60.06006006,,,,,,,,,,,,,,,,,,,,,
,,,,,,1,0,1,0,1,0,001,2022-04-27_15h11.01.553,Digit Span Task,2021.2.3,Linux x86_64,60.06006006,,,,,,,,,,,,,,,,,,,,,
,,,,,,2,0,2,0,1,0,001,2022-04-27_15h11.01.553,Digit Span Task,2021.2.3,Linux x86_64,60.06006006,,,,,,,,,,,,,,,,,,,,,
,,,,,,3,0,3,0,1,0,001,2022-04-27_15h11.01.553,Digit Span Task,2021.2.3,Linux x86_64,60.06006006,,,,,,,,,,,,,,,,,,,,,
,,,,,,4,0,4,0,1,0,001,2022-04-27_15h11.01.553,Digit Span Task,2021.2.3,Linux x86_64,60.06006006,,,,,,,,,,,,,,,,,,,,,
,,,,,,5,0,5,0,1,0,001,2022-04-27_15h11.01.553,Digit Span Task,2021.2.3,Linux x86_64,60.06006006,,,,,,,,,,,,,,,,,,,,,
,,,,,,6,0,6,0,1,0,001,2022-04-27_15h11.01.553,Digit Span Task,2021.2.3,Linux x86_64,60.06006006,,,,,,,,,,,,,,,,,,,,,
,,,,,,7,0,7,0,1,0,001,2022-04-27_15h11.01.553,Digit Span Task,2021.2.3,Linux x86_64,60.06006006,,,,,,,,,,,,,,,,,,,,,
,,,,,,8,0,8,0,1,0,001,2022-04-27_15h11.01.553,Digit Span Task,2021.2.3,Linux x86_64,60.06006006,,,,,,,,,,,,,,,,,,,,,
,,,,,,9,0,9,0,1,0,001,2022-04-27_15h11.01.553,Digit Span Task,2021.2.3,Linux x86_64,60.06006006,,,,,,,,,,,,,,,,,,,,,
,,,,,,10,0,10,0,1,0,001,2022-04-27_15h11.01.553,Digit Span Task,2021.2.3,Linux x86_64,60.06006006,,,,,,,,,,,,,,,,,,,,,
,,,,,,11,0,11,0,1,0,001,2022-04-27_15h11.01.553,Digit Span Task,2021.2.3,Linux x86_64,60.06006006,,,,,,,,,,,,,,,,,,,,,
,,,,,,,,,,,0,001,2022-04-27_15h11.01.553,Digit Span Task,2021.2.3,Linux x86_64,60.06006006,863158908,0,-0.003679196,-0.41258502,1,0,0,cont_button,0,0,0,0,1,12,6.81346E+11,,,,,,
,,,,,,0,0,0,0,1,0,001,2022-04-27_15h11.01.553,Digit Span Task,2021.2.3,Linux x86_64,60.06006006,,,,,,,,,,,,,,,,,,,,,
,,,,,,1,0,1,0,1,0,001,2022-04-27_15h11.01.553,Digit Span Task,2021.2.3,Linux x86_64,60.06006006,,,,,,,,,,,,,,,,,,,,,
,,,,,,2,0,2,0,1,0,001,2022-04-27_15h11.01.553,Digit Span Task,2021.2.3,Linux x86_64,60.06006006,,,,,,,,,,,,,,,,,,,,,
,,,,,,3,0,3,0,1,0,001,2022-04-27_15h11.01.553,Digit Span Task,2021.2.3,Linux x86_64,60.06006006,,,,,,,,,,,,,,,,,,,,,
,,,,,,4,0,4,0,1,0,001,2022-04-27_15h11.01.553,Digit Span Task,2021.2.3,Linux x86_64,60.06006006,,,,,,,,,,,,,,,,,,,,,
,,,,,,5,0,5,0,1,0,001,2022-04-27_15h11.01.553,Digit Span Task,2021.2.3,Linux x86_64,60.06006006,,,,,,,,,,,,,,,,,,,,,
,,,,,,6,0,6,0,1,0,001,2022-04-27_15h11.01.553,Digit Span Task,2021.2.3,Linux x86_64,60.06006006,,,,,,,,,,,,,,,,,,,,,
,,,,,,7,0,7,0,1,0,001,2022-04-27_15h11.01.553,Digit Span Task,2021.2.3,Linux x86_64,60.06006006,,,,,,,,,,,,,,,,,,,,,
,,,,,,8,0,8,0,1,0,001,2022-04-27_15h11.01.553,Digit Span Task,2021.2.3,Linux x86_64,60.06006006,,,,,,,,,,,,,,,,,,,,,
,,,,,,9,0,9,0,1,0,001,2022-04-27_15h11.01.553,Digit Span Task,2021.2.3,Linux x86_64,60.06006006,,,,,,,,,,,,,,,,,,,,,
,,,,,,10,0,10,0,1,0,001,2022-04-27_15h11.01.553,Digit Span Task,2021.2.3,Linux x86_64,60.06006006,,,,,,,,,,,,,,,,,,,,,
,,,,,,11,0,11,0,1,0,001,2022-04-27_15h11.01.553,Digit Span Task,2021.2.3,Linux x86_64,60.06006006,,,,,,,,,,,,,,,,,,,,,
,,,,,,,,,,,0,001,2022-04-27_15h11.01.553,Digit Span Task,2021.2.3,Linux x86_64,60.06006006,78326758431,0,-0.005180836,-0.432977756,1,0,0,cont_button,0,1,1,1,1,12,8.7238E+11,,,,,,
,,,,,,0,0,0,0,1,0,001,2022-04-27_15h11.01.553,Digit Span Task,2021.2.3,Linux x86_64,60.06006006,,,,,,,,,,,,,,,,,,,,,
,,,,,,1,0,1,0,1,0,001,2022-04-27_15h11.01.553,Digit Span Task,2021.2.3,Linux x86_64,60.06006006,,,,,,,,,,,,,,,,,,,,,
,,,,,,2,0,2,0,1,0,001,2022-04-27_15h11.01.553,Digit Span Task,2021.2.3,Linux x86_64,60.06006006,,,,,,,,,,,,,,,,,,,,,
,,,,,,3,0,3,0,1,0,001,2022-04-27_15h11.01.553,Digit Span Task,2021.2.3,Linux x86_64,60.06006006,,,,,,,,,,,,,,,,,,,,,
,,,,,,4,0,4,0,1,0,001,2022-04-27_15h11.01.553,Digit Span Task,2021.2.3,Linux x86_64,60.06006006,,,,,,,,,,,,,,,,,,,,,
,,,,,,5,0,5,0,1,0,001,2022-04-27_15h11.01.553,Digit Span Task,2021.2.3,Linux x86_64,60.06006006,,,,,,,,,,,,,,,,,,,,,
,,,,,,6,0,6,0,1,0,001,2022-04-27_15h11.01.553,Digit Span Task,2021.2.3,Linux x86_64,60.06006006,,,,,,,,,,,,,,,,,,,,,
,,,,,,7,0,7,0,1,0,001,2022-04-27_15h11.01.553,Digit Span Task,2021.2.3,Linux x86_64,60.06006006,,,,,,,,,,,,,,,,,,,,,
,,,,,,8,0,8,0,1,0,001,2022-04-27_15h11.01.553,Digit Span Task,2021.2.3,Linux x86_64,60.06006006,,,,,,,,,,,,,,,,,,,,,
,,,,,,9,0,9,0,1,0,001,2022-04-27_15h11.01.553,Digit Span Task,2021.2.3,Linux x86_64,60.06006006,,,,,,,,,,,,,,,,,,,,,
,,,,,,10,0,10,0,1,0,001,2022-04-27_15h11.01.553,Digit Span Task,2021.2.3,Linux x86_64,60.06006006,,,,,,,,,,,,,,,,,,,,,
,,,,,,11,0,11,0,1,0,001,2022-04-27_15h11.01.553,Digit Span Task,2021.2.3,Linux x86_64,60.06006006,,,,,,,,,,,,,,,,,,,,,
,,,,,,,,,,,0,001,2022-04-27_15h11.01.553,Digit Span Task,2021.2.3,Linux x86_64,60.06006006,2410754202213,0,0.043628613,-0.385310491,1,0,0,cont_button,0,2,2,2,1,12,2.41072E+11,,,,,,
,,,,,,,,,,,0,001,2022-04-27_15h11.01.553,Digit Span Task,2021.2.3,Linux x86_64,60.06006006,,,,,,,,,,,,,,,,0,9,9,9,1,twelve.xlsx
,,,,,,0,0,0,0,1,0,001,2022-04-27_15h11.01.553,Digit Span Task,2021.2.3,Linux x86_64,60.06006006,,,,,,,,,,,,,,,,,,,,,
,,,,,,1,0,1,0,1,0,001,2022-04-27_15h11.01.553,Digit Span Task,2021.2.3,Linux x86_64,60.06006006,,,,,,,,,,,,,,,,,,,,,
,,,,,,2,0,2,0,1,0,001,2022-04-27_15h11.01.553,Digit Span Task,2021.2.3,Linux x86_64,60.06006006,,,,,,,,,,,,,,,,,,,,,
,,,,,,,,,,,0,001,2022-04-27_15h11.01.553,Digit Span Task,2021.2.3,Linux x86_64,60.06006006,217,1,0.055154085,-0.426356634,1,0,0,cont_button,0,0,0,0,1,3,217,,,,,,
,,,,,,0,0,0,0,1,0,001,2022-04-27_15h11.01.553,Digit Span Task,2021.2.3,Linux x86_64,60.06006006,,,,,,,,,,,,,,,,,,,,,
,,,,,,1,0,1,0,1,0,001,2022-04-27_15h11.01.553,Digit Span Task,2021.2.3,Linux x86_64,60.06006006,,,,,,,,,,,,,,,,,,,,,
,,,,,,2,0,2,0,1,0,001,2022-04-27_15h11.01.553,Digit Span Task,2021.2.3,Linux x86_64,60.06006006,,,,,,,,,,,,,,,,,,,,,
,,,,,,,,,,,0,001,2022-04-27_15h11.01.553,Digit Span Task,2021.2.3,Linux x86_64,60.06006006,486,1,0.089672963,-0.415366809,1,0,0,cont_button,0,1,1,1,1,3,486,,,,,,
,,,,,,0,0,0,0,1,0,001,2022-04-27_15h11.01.553,Digit Span Task,2021.2.3,Linux x86_64,60.06006006,,,,,,,,,,,,,,,,,,,,,
,,,,,,1,0,1,0,1,0,001,2022-04-27_15h11.01.553,Digit Span Task,2021.2.3,Linux x86_64,60.06006006,,,,,,,,,,,,,,,,,,,,,
,,,,,,2,0,2,0,1,0,001,2022-04-27_15h11.01.553,Digit Span Task,2021.2.3,Linux x86_64,60.06006006,,,,,,,,,,,,,,,,,,,,,
,,,,,,,,,,,0,001,2022-04-27_15h11.01.553,Digit Span Task,2021.2.3,Linux x86_64,60.06006006,760,1,-0.002513011,-0.421672265,1,0,0,cont_button,0,2,2,2,1,3,760,,,,,,
,,,,,,,,,,,0,001,2022-04-27_15h11.01.553,Digit Span Task,2021.2.3,Linux x86_64,60.06006006,,,,,,,,,,,,,,,,1,0,10,0,1,three.xlsx
,,,,,,0,0,0,0,1,0,001,2022-04-27_15h11.01.553,Digit Span Task,2021.2.3,Linux x86_64,60.06006006,,,,,,,,,,,,,,,,,,,,,
,,,,,,1,0,1,0,1,0,001,2022-04-27_15h11.01.553,Digit Span Task,2021.2.3,Linux x86_64,60.06006006,,,,,,,,,,,,,,,,,,,,,
,,,,,,2,0,2,0,1,0,001,2022-04-27_15h11.01.553,Digit Span Task,2021.2.3,Linux x86_64,60.06006006,,,,,,,,,,,,,,,,,,,,,
,,,,,,3,0,3,0,1,0,001,2022-04-27_15h11.01.553,Digit Span Task,2021.2.3,Linux x86_64,60.06006006,,,,,,,,,,,,,,,,,,,,,
,,,,,,,,,,,0,001,2022-04-27_15h11.01.553,Digit Span Task,2021.2.3,Linux x86_64,60.06006006,1641,0,-0.019729535,-0.406258345,1,0,0,cont_button,0,0,0,0,1,4,3141,,,,,,
,,,,,,0,0,0,0,1,0,001,2022-04-27_15h11.01.553,Digit Span Task,2021.2.3,Linux x86_64,60.06006006,,,,,,,,,,,,,,,,,,,,,
,,,,,,1,0,1,0,1,0,001,2022-04-27_15h11.01.553,Digit Span Task,2021.2.3,Linux x86_64,60.06006006,,,,,,,,,,,,,,,,,,,,,
,,,,,,2,0,2,0,1,0,001,2022-04-27_15h11.01.553,Digit Span Task,2021.2.3,Linux x86_64,60.06006006,,,,,,,,,,,,,,,,,,,,,
,,,,,,3,0,3,0,1,0,001,2022-04-27_15h11.01.553,Digit Span Task,2021.2.3,Linux x86_64,60.06006006,,,,,,,,,,,,,,,,,,,,,
,,,,,,,,,,,0,001,2022-04-27_15h11.01.553,Digit Span Task,2021.2.3,Linux x86_64,60.06006006,6351,1,-0.041905324,-0.416155497,1,0,0,cont_button,0,1,1,1,1,4,6351,,,,,,
,,,,,,0,0,0,0,1,0,001,2022-04-27_15h11.01.553,Digit Span Task,2021.2.3,Linux x86_64,60.06006006,,,,,,,,,,,,,,,,,,,,,
,,,,,,1,0,1,0,1,0,001,2022-04-27_15h11.01.553,Digit Span Task,2021.2.3,Linux x86_64,60.06006006,,,,,,,,,,,,,,,,,,,,,
,,,,,,2,0,2,0,1,0,001,2022-04-27_15h11.01.553,Digit Span Task,2021.2.3,Linux x86_64,60.06006006,,,,,,,,,,,,,,,,,,,,,
,,,,,,3,0,3,0,1,0,001,2022-04-27_15h11.01.553,Digit Span Task,2021.2.3,Linux x86_64,60.06006006,,,,,,,,,,,,,,,,,,,,,
,,,,,,,,,,,0,001,2022-04-27_15h11.01.553,Digit Span Task,2021.2.3,Linux x86_64,60.06006006,23391,0,-0.00536259,-0.400739431,1,0,0,cont_button,0,2,2,2,1,4,2391,,,,,,
,,,,,,,,,,,0,001,2022-04-27_15h11.01.553,Digit Span Task,2021.2.3,Linux x86_64,60.06006006,,,,,,,,,,,,,,,,1,1,11,1,1,four.xlsx
,,,,,,0,0,0,0,1,0,001,2022-04-27_15h11.01.553,Digit Span Task,2021.2.3,Linux x86_64,60.06006006,,,,,,,,,,,,,,,,,,,,,
,,,,,,1,0,1,0,1,0,001,2022-04-27_15h11.01.553,Digit Span Task,2021.2.3,Linux x86_64,60.06006006,,,,,,,,,,,,,,,,,,,,,
,,,,,,2,0,2,0,1,0,001,2022-04-27_15h11.01.553,Digit Span Task,2021.2.3,Linux x86_64,60.06006006,,,,,,,,,,,,,,,,,,,,,
,,,,,,3,0,3,0,1,0,001,2022-04-27_15h11.01.553,Digit Span Task,2021.2.3,Linux x86_64,60.06006006,,,,,,,,,,,,,,,,,,,,,
,,,,,,4,0,4,0,1,0,001,2022-04-27_15h11.01.553,Digit Span Task,2021.2.3,Linux x86_64,60.06006006,,,,,,,,,,,,,,,,,,,,,
,,,,,,,,,,,0,001,2022-04-27_15h11.01.553,Digit Span Task,2021.2.3,Linux x86_64,60.06006006,149321,0,0.125305255,-0.408953746,1,0,0,cont_button,0,0,0,0,1,5,14932,,,,,,
,,,,,,0,0,0,0,1,0,001,2022-04-27_15h11.01.553,Digit Span Task,2021.2.3,Linux x86_64,60.06006006,,,,,,,,,,,,,,,,,,,,,
,,,,,,1,0,1,0,1,0,001,2022-04-27_15h11.01.553,Digit Span Task,2021.2.3,Linux x86_64,60.06006006,,,,,,,,,,,,,,,,,,,,,
,,,,,,2,0,2,0,1,0,001,2022-04-27_15h11.01.553,Digit Span Task,2021.2.3,Linux x86_64,60.06006006,,,,,,,,,,,,,,,,,,,,,
,,,,,,3,0,3,0,1,0,001,2022-04-27_15h11.01.553,Digit Span Task,2021.2.3,Linux x86_64,60.06006006,,,,,,,,,,,,,,,,,,,,,
,,,,,,4,0,4,0,1,0,001,2022-04-27_15h11.01.553,Digit Span Task,2021.2.3,Linux x86_64,60.06006006,,,,,,,,,,,,,,,,,,,,,
,,,,,,,,,,,0,001,2022-04-27_15h11.01.553,Digit Span Task,2021.2.3,Linux x86_64,60.06006006,10646,1,0.076340914,-0.424343586,1,0,0,cont_button,0,1,1,1,1,5,10646,,,,,,
,,,,,,0,0,0,0,1,0,001,2022-04-27_15h11.01.553,Digit Span Task,2021.2.3,Linux x86_64,60.06006006,,,,,,,,,,,,,,,,,,,,,
,,,,,,1,0,1,0,1,0,001,2022-04-27_15h11.01.553,Digit Span Task,2021.2.3,Linux x86_64,60.06006006,,,,,,,,,,,,,,,,,,,,,
,,,,,,2,0,2,0,1,0,001,2022-04-27_15h11.01.553,Digit Span Task,2021.2.3,Linux x86_64,60.06006006,,,,,,,,,,,,,,,,,,,,,
,,,,,,3,0,3,0,1,0,001,2022-04-27_15h11.01.553,Digit Span Task,2021.2.3,Linux x86_64,60.06006006,,,,,,,,,,,,,,,,,,,,,
,,,,,,4,0,4,0,1,0,001,2022-04-27_15h11.01.553,Digit Span Task,2021.2.3,Linux x86_64,60.06006006,,,,,,,,,,,,,,,,,,,,,
,,,,,,,,,,,0,001,2022-04-27_15h11.01.553,Digit Span Task,2021.2.3,Linux x86_64,60.06006006,74832,1,0.049877246,-0.42723306,1,0,0,cont_button,0,2,2,2,1,5,74832,,,,,,
,,,,,,,,,,,0,001,2022-04-27_15h11.01.553,Digit Span Task,2021.2.3,Linux x86_64,60.06006006,,,,,,,,,,,,,,,,1,2,12,2,1,five.xlsx
,,,,,,0,0,0,0,1,0,001,2022-04-27_15h11.01.553,Digit Span Task,2021.2.3,Linux x86_64,60.06006006,,,,,,,,,,,,,,,,,,,,,
,,,,,,1,0,1,0,1,0,001,2022-04-27_15h11.01.553,Digit Span Task,2021.2.3,Linux x86_64,60.06006006,,,,,,,,,,,,,,,,,,,,,
,,,,,,2,0,2,0,1,0,001,2022-04-27_15h11.01.553,Digit Span Task,2021.2.3,Linux x86_64,60.06006006,,,,,,,,,,,,,,,,,,,,,
,,,,,,3,0,3,0,1,0,001,2022-04-27_15h11.01.553,Digit Span Task,2021.2.3,Linux x86_64,60.06006006,,,,,,,,,,,,,,,,,,,,,
,,,,,,4,0,4,0,1,0,001,2022-04-27_15h11.01.553,Digit Span Task,2021.2.3,Linux x86_64,60.06006006,,,,,,,,,,,,,,,,,,,,,
,,,,,,5,0,5,0,1,0,001,2022-04-27_15h11.01.553,Digit Span Task,2021.2.3,Linux x86_64,60.06006006,,,,,,,,,,,,,,,,,,,,,
,,,,,,,,,,,0,001,2022-04-27_15h11.01.553,Digit Span Task,2021.2.3,Linux x86_64,60.06006006,34833,0,0.049877246,-0.42723306,1,0,0,cont_button,0,0,0,0,1,6,934648,,,,,,
,,,,,,0,0,0,0,1,0,001,2022-04-27_15h11.01.553,Digit Span Task,2021.2.3,Linux x86_64,60.06006006,,,,,,,,,,,,,,,,,,,,,
,,,,,,1,0,1,0,1,0,001,2022-04-27_15h11.01.553,Digit Span Task,2021.2.3,Linux x86_64,60.06006006,,,,,,,,,,,,,,,,,,,,,
,,,,,,2,0,2,0,1,0,001,2022-04-27_15h11.01.553,Digit Span Task,2021.2.3,Linux x86_64,60.06006006,,,,,,,,,,,,,,,,,,,,,
,,,,,,3,0,3,0,1,0,001,2022-04-27_15h11.01.553,Digit Span Task,2021.2.3,Linux x86_64,60.06006006,,,,,,,,,,,,,,,,,,,,,
,,,,,,4,0,4,0,1,0,001,2022-04-27_15h11.01.553,Digit Span Task,2021.2.3,Linux x86_64,60.06006006,,,,,,,,,,,,,,,,,,,,,
,,,,,,5,0,5,0,1,0,001,2022-04-27_15h11.01.553,Digit Span Task,2021.2.3,Linux x86_64,60.06006006,,,,,,,,,,,,,,,,,,,,,
