start_mouse.x,start_mouse.y,start_mouse.leftButton,start_mouse.midButton,start_mouse.rightButton,start_mouse.clicked_name,digitLoop.thisRepN,digitLoop.thisTrialN,digitLoop.thisN,digitLoop.thisIndex,digitLoop.ran,participant,session,date,expName,psychopyVersion,OS,frameRate,textbox.text,correct,mouse.x,mouse.y,mouse.leftButton,mouse.midButton,mouse.rightButton,mouse.clicked_name,trials.thisRepN,trials.thisTrialN,trials.thisN,trials.thisIndex,trials.ran,digitSpan,digits,blocks.thisRepN,blocks.thisTrialN,blocks.thisN,blocks.thisIndex,blocks.ran,condition_file
0.084903797,-0.407902956,1,0,0,cont_button,0,0,0,0,1,0,001,2022-05-03_11h36.07.083,Digit Span Task,2021.2.3,Linux x86_64,60.08893162,,,,,,,,,,,,,,,,,,,,,
,,,,,,1,0,1,0,1,0,001,2022-05-03_11h36.07.083,Digit Span Task,2021.2.3,Linux x86_64,60.08893162,,,,,,,,,,,,,,,,,,,,,
,,,,,,2,0,2,0,1,0,001,2022-05-03_11h36.07.083,Digit Span Task,2021.2.3,Linux x86_64,60.08893162,,,,,,,,,,,,,,,,,,,,,
,,,,,,,,,,,0,001,2022-05-03_11h36.07.083,Digit Span Task,2021.2.3,Linux x86_64,60.08893162,1237,0,0.012315114,-0.378056526,1,0,0,cont_button,0,0,0,0,1,3,217,,,,,,
,,,,,,0,0,0,0,1,0,001,2022-05-03_11h36.07.083,Digit Span Task,2021.2.3,Linux x86_64,60.08893162,,,,,,,,,,,,,,,,,,,,,
,,,,,,1,0,1,0,1,0,001,2022-05-03_11h36.07.083,Digit Span Task,2021.2.3,Linux x86_64,60.08893162,,,,,,,,,,,,,,,,,,,,,
,,,,,,2,0,2,0,1,0,001,2022-05-03_11h36.07.083,Digit Span Task,2021.2.3,Linux x86_64,60.08893162,,,,,,,,,,,,,,,,,,,,,
,,,,,,,,,,,0,001,2022-05-03_11h36.07.083,Digit Span Task,2021.2.3,Linux x86_64,60.08893162,486,1,-0.016279221,-0.375500202,1,0,0,cont_button,0,1,1,1,1,3,486,,,,,,
,,,,,,0,0,0,0,1,0,001,2022-05-03_11h36.07.083,Digit Span Task,2021.2.3,Linux x86_64,60.08893162,,,,,,,,,,,,,,,,,,,,,
,,,,,,1,0,1,0,1,0,001,2022-05-03_11h36.07.083,Digit Span Task,2021.2.3,Linux x86_64,60.08893162,,,,,,,,,,,,,,,,,,,,,
,,,,,,2,0,2,0,1,0,001,2022-05-03_11h36.07.083,Digit Span Task,2021.2.3,Linux x86_64,60.08893162,,,,,,,,,,,,,,,,,,,,,
,,,,,,,,,,,0,001,2022-05-03_11h36.07.083,Digit Span Task,2021.2.3,Linux x86_64,60.08893162,760,1,0.071342866,-0.415706952,1,0,0,cont_button,0,2,2,2,1,3,760,,,,,,
,,,,,,,,,,,0,001,2022-05-03_11h36.07.083,Digit Span Task,2021.2.3,Linux x86_64,60.08893162,,,,,,,,,,,,,,,,0,0,0,0,1,three.xlsx
,,,,,,0,0,0,0,1,0,001,2022-05-03_11h36.07.083,Digit Span Task,2021.2.3,Linux x86_64,60.08893162,,,,,,,,,,,,,,,,,,,,,
,,,,,,1,0,1,0,1,0,001,2022-05-03_11h36.07.083,Digit Span Task,2021.2.3,Linux x86_64,60.08893162,,,,,,,,,,,,,,,,,,,,,
,,,,,,2,0,2,0,1,0,001,2022-05-03_11h36.07.083,Digit Span Task,2021.2.3,Linux x86_64,60.08893162,,,,,,,,,,,,,,,,,,,,,
,,,,,,3,0,3,0,1,0,001,2022-05-03_11h36.07.083,Digit Span Task,2021.2.3,Linux x86_64,60.08893162,,,,,,,,,,,,,,,,,,,,,
,,,,,,,,,,,0,001,2022-05-03_11h36.07.083,Digit Span Task,2021.2.3,Linux x86_64,60.08893162,3141,1,0.076405843,-0.413487673,1,0,0,cont_button,0,0,0,0,1,4,3141,,,,,,
,,,,,,0,0,0,0,1,0,001,2022-05-03_11h36.07.083,Digit Span Task,2021.2.3,Linux x86_64,60.08893162,,,,,,,,,,,,,,,,,,,,,
,,,,,,1,0,1,0,1,0,001,2022-05-03_11h36.07.083,Digit Span Task,2021.2.3,Linux x86_64,60.08893162,,,,,,,,,,,,,,,,,,,,,
,,,,,,2,0,2,0,1,0,001,2022-05-03_11h36.07.083,Digit Span Task,2021.2.3,Linux x86_64,60.08893162,,,,,,,,,,,,,,,,,,,,,
,,,,,,3,0,3,0,1,0,001,2022-05-03_11h36.07.083,Digit Span Task,2021.2.3,Linux x86_64,60.08893162,,,,,,,,,,,,,,,,,,,,,
,,,,,,,,,,,0,001,2022-05-03_11h36.07.083,Digit Span Task,2021.2.3,Linux x86_64,60.08893162,6351,1,0.05818518,-0.412252506,1,0,0,cont_button,0,1,1,1,1,4,6351,,,,,,
,,,,,,0,0,0,0,1,0,001,2022-05-03_11h36.07.083,Digit Span Task,2021.2.3,Linux x86_64,60.08893162,,,,,,,,,,,,,,,,,,,,,
,,,,,,1,0,1,0,1,0,001,2022-05-03_11h36.07.083,Digit Span Task,2021.2.3,Linux x86_64,60.08893162,,,,,,,,,,,,,,,,,,,,,
,,,,,,2,0,2,0,1,0,001,2022-05-03_11h36.07.083,Digit Span Task,2021.2.3,Linux x86_64,60.08893162,,,,,,,,,,,,,,,,,,,,,
,,,,,,3,0,3,0,1,0,001,2022-05-03_11h36.07.083,Digit Span Task,2021.2.3,Linux x86_64,60.08893162,,,,,,,,,,,,,,,,,,,,,
,,,,,,,,,,,0,001,2022-05-03_11h36.07.083,Digit Span Task,2021.2.3,Linux x86_64,60.08893162,2391,1,0.140805403,-0.389635086,1,0,0,cont_button,0,2,2,2,1,4,2391,,,,,,
,,,,,,,,,,,0,001,2022-05-03_11h36.07.083,Digit Span Task,2021.2.3,Linux x86_64,60.08893162,,,,,,,,,,,,,,,,0,1,1,1,1,four.xlsx
,,,,,,0,0,0,0,1,0,001,2022-05-03_11h36.07.083,Digit Span Task,2021.2.3,Linux x86_64,60.08893162,,,,,,,,,,,,,,,,,,,,,
,,,,,,1,0,1,0,1,0,001,2022-05-03_11h36.07.083,Digit Span Task,2021.2.3,Linux x86_64,60.08893162,,,,,,,,,,,,,,,,,,,,,
,,,,,,2,0,2,0,1,0,001,2022-05-03_11h36.07.083,Digit Span Task,2021.2.3,Linux x86_64,60.08893162,,,,,,,,,,,,,,,,,,,,,
,,,,,,3,0,3,0,1,0,001,2022-05-03_11h36.07.083,Digit Span Task,2021.2.3,Linux x86_64,60.08893162,,,,,,,,,,,,,,,,,,,,,
,,,,,,4,0,4,0,1,0,001,2022-05-03_11h36.07.083,Digit Span Task,2021.2.3,Linux x86_64,60.08893162,,,,,,,,,,,,,,,,,,,,,
,,,,,,,,,,,0,001,2022-05-03_11h36.07.083,Digit Span Task,2021.2.3,Linux x86_64,60.08893162,14932,1,0.072017988,-0.410682201,1,0,0,cont_button,0,0,0,0,1,5,14932,,,,,,
,,,,,,0,0,0,0,1,0,001,2022-05-03_11h36.07.083,Digit Span Task,2021.2.3,Linux x86_64,60.08893162,,,,,,,,,,,,,,,,,,,,,
,,,,,,1,0,1,0,1,0,001,2022-05-03_11h36.07.083,Digit Span Task,2021.2.3,Linux x86_64,60.08893162,,,,,,,,,,,,,,,,,,,,,
,,,,,,2,0,2,0,1,0,001,2022-05-03_11h36.07.083,Digit Span Task,2021.2.3,Linux x86_64,60.08893162,,,,,,,,,,,,,,,,,,,,,
,,,,,,3,0,3,0,1,0,001,2022-05-03_11h36.07.083,Digit Span Task,2021.2.3,Linux x86_64,60.08893162,,,,,,,,,,,,,,,,,,,,,
,,,,,,4,0,4,0,1,0,001,2022-05-03_11h36.07.083,Digit Span Task,2021.2.3,Linux x86_64,60.08893162,,,,,,,,,,,,,,,,,,,,,
,,,,,,,,,,,0,001,2022-05-03_11h36.07.083,Digit Span Task,2021.2.3,Linux x86_64,60.08893162,10646,1,0.055315256,-0.422899803,1,0,0,cont_button,0,1,1,1,1,5,10646,,,,,,
,,,,,,0,0,0,0,1,0,001,2022-05-03_11h36.07.083,Digit Span Task,2021.2.3,Linux x86_64,60.08893162,,,,,,,,,,,,,,,,,,,,,
,,,,,,1,0,1,0,1,0,001,2022-05-03_11h36.07.083,Digit Span Task,2021.2.3,Linux x86_64,60.08893162,,,,,,,,,,,,,,,,,,,,,
,,,,,,2,0,2,0,1,0,001,2022-05-03_11h36.07.083,Digit Span Task,2021.2.3,Linux x86_64,60.08893162,,,,,,,,,,,,,,,,,,,,,
,,,,,,3,0,3,0,1,0,001,2022-05-03_11h36.07.083,Digit Span Task,2021.2.3,Linux x86_64,60.08893162,,,,,,,,,,,,,,,,,,,,,
,,,,,,4,0,4,0,1,0,001,2022-05-03_11h36.07.083,Digit Span Task,2021.2.3,Linux x86_64,60.08893162,,,,,,,,,,,,,,,,,,,,,
,,,,,,,,,,,0,001,2022-05-03_11h36.07.083,Digit Span Task,2021.2.3,Linux x86_64,60.08893162,74832,1,0.015476545,-0.420579036,1,0,0,cont_button,0,2,2,2,1,5,74832,,,,,,
,,,,,,,,,,,0,001,2022-05-03_11h36.07.083,Digit Span Task,2021.2.3,Linux x86_64,60.08893162,,,,,,,,,,,,,,,,0,2,2,2,1,five.xlsx
,,,,,,0,0,0,0,1,0,001,2022-05-03_11h36.07.083,Digit Span Task,2021.2.3,Linux x86_64,60.08893162,,,,,,,,,,,,,,,,,,,,,
,,,,,,1,0,1,0,1,0,001,2022-05-03_11h36.07.083,Digit Span Task,2021.2.3,Linux x86_64,60.08893162,,,,,,,,,,,,,,,,,,,,,
,,,,,,2,0,2,0,1,0,001,2022-05-03_11h36.07.083,Digit Span Task,2021.2.3,Linux x86_64,60.08893162,,,,,,,,,,,,,,,,,,,,,
,,,,,,3,0,3,0,1,0,001,2022-05-03_11h36.07.083,Digit Span Task,2021.2.3,Linux x86_64,60.08893162,,,,,,,,,,,,,,,,,,,,,
,,,,,,4,0,4,0,1,0,001,2022-05-03_11h36.07.083,Digit Span Task,2021.2.3,Linux x86_64,60.08893162,,,,,,,,,,,,,,,,,,,,,
,,,,,,5,0,5,0,1,0,001,2022-05-03_11h36.07.083,Digit Span Task,2021.2.3,Linux x86_64,60.08893162,,,,,,,,,,,,,,,,,,,,,
,,,,,,,,,,,0,001,2022-05-03_11h36.07.083,Digit Span Task,2021.2.3,Linux x86_64,60.08893162,93468,0,-0.002189954,-0.382164001,1,0,0,cont_button,0,0,0,0,1,6,934648,,,,,,
,,,,,,0,0,0,0,1,0,001,2022-05-03_11h36.07.083,Digit Span Task,2021.2.3,Linux x86_64,60.08893162,,,,,,,,,,,,,,,,,,,,,
,,,,,,1,0,1,0,1,0,001,2022-05-03_11h36.07.083,Digit Span Task,2021.2.3,Linux x86_64,60.08893162,,,,,,,,,,,,,,,,,,,,,
,,,,,,2,0,2,0,1,0,001,2022-05-03_11h36.07.083,Digit Span Task,2021.2.3,Linux x86_64,60.08893162,,,,,,,,,,,,,,,,,,,,,
,,,,,,3,0,3,0,1,0,001,2022-05-03_11h36.07.083,Digit Span Task,2021.2.3,Linux x86_64,60.08893162,,,,,,,,,,,,,,,,,,,,,
,,,,,,4,0,4,0,1,0,001,2022-05-03_11h36.07.083,Digit Span Task,2021.2.3,Linux x86_64,60.08893162,,,,,,,,,,,,,,,,,,,,,
,,,,,,5,0,5,0,1,0,001,2022-05-03_11h36.07.083,Digit Span Task,2021.2.3,Linux x86_64,60.08893162,,,,,,,,,,,,,,,,,,,,,
,,,,,,,,,,,0,001,2022-05-03_11h36.07.083,Digit Span Task,2021.2.3,Linux x86_64,60.08893162,134790,0,-0.012122472,-0.37517341,1,0,0,cont_button,0,1,1,1,1,6,179390,,,,,,
,,,,,,0,0,0,0,1,0,001,2022-05-03_11h36.07.083,Digit Span Task,2021.2.3,Linux x86_64,60.08893162,,,,,,,,,,,,,,,,,,,,,
,,,,,,1,0,1,0,1,0,001,2022-05-03_11h36.07.083,Digit Span Task,2021.2.3,Linux x86_64,60.08893162,,,,,,,,,,,,,,,,,,,,,
,,,,,,2,0,2,0,1,0,001,2022-05-03_11h36.07.083,Digit Span Task,2021.2.3,Linux x86_64,60.08893162,,,,,,,,,,,,,,,,,,,,,
,,,,,,3,0,3,0,1,0,001,2022-05-03_11h36.07.083,Digit Span Task,2021.2.3,Linux x86_64,60.08893162,,,,,,,,,,,,,,,,,,,,,
,,,,,,4,0,4,0,1,0,001,2022-05-03_11h36.07.083,Digit Span Task,2021.2.3,Linux x86_64,60.08893162,,,,,,,,,,,,,,,,,,,,,
,,,,,,5,0,5,0,1,0,001,2022-05-03_11h36.07.083,Digit Span Task,2021.2.3,Linux x86_64,60.08893162,,,,,,,,,,,,,,,,,,,,,
,,,,,,,,,,,0,001,2022-05-03_11h36.07.083,Digit Span Task,2021.2.3,Linux x86_64,60.08893162,108288,0,0.01986297,-0.421414057,1,0,0,cont_button,0,2,2,2,1,6,408288,,,,,,
,,,,,,,,,,,0,001,2022-05-03_11h36.07.083,Digit Span Task,2021.2.3,Linux x86_64,60.08893162,,,,,,,,,,,,,,,,0,3,3,3,1,six.xlsx
,,,,,,0,0,0,0,1,0,001,2022-05-03_11h36.07.083,Digit Span Task,2021.2.3,Linux x86_64,60.08893162,,,,,,,,,,,,,,,,,,,,,
,,,,,,1,0,1,0,1,0,001,2022-05-03_11h36.07.083,Digit Span Task,2021.2.3,Linux x86_64,60.08893162,,,,,,,,,,,,,,,,,,,,,
,,,,,,2,0,2,0,1,0,001,2022-05-03_11h36.07.083,Digit Span Task,2021.2.3,Linux x86_64,60.08893162,,,,,,,,,,,,,,,,,,,,,
,,,,,,3,0,3,0,1,0,001,2022-05-03_11h36.07.083,Digit Span Task,2021.2.3,Linux x86_64,60.08893162,,,,,,,,,,,,,,,,,,,,,
,,,,,,4,0,4,0,1,0,001,2022-05-03_11h36.07.083,Digit Span Task,2021.2.3,Linux x86_64,60.08893162,,,,,,,,,,,,,,,,,,,,,
,,,,,,5,0,5,0,1,0,001,2022-05-03_11h36.07.083,Digit Span Task,2021.2.3,Linux x86_64,60.08893162,,,,,,,,,,,,,,,,,,,,,
,,,,,,6,0,6,0,1,0,001,2022-05-03_11h36.07.083,Digit Span Task,2021.2.3,Linux x86_64,60.08893162,,,,,,,,,,,,,,,,,,,,,
,,,,,,,,,,,0,001,2022-05-03_11h36.07.083,Digit Span Task,2021.2.3,Linux x86_64,60.08893162,4498237,1,0.025332371,-0.401164134,1,0,0,cont_button,0,0,0,0,1,7,4498237,,,,,,
,,,,,,0,0,0,0,1,0,001,2022-05-03_11h36.07.083,Digit Span Task,2021.2.3,Linux x86_64,60.08893162,,,,,,,,,,,,,,,,,,,,,
,,,,,,1,0,1,0,1,0,001,2022-05-03_11h36.07.083,Digit Span Task,2021.2.3,Linux x86_64,60.08893162,,,,,,,,,,,,,,,,,,,,,
,,,,,,2,0,2,0,1,0,001,2022-05-03_11h36.07.083,Digit Span Task,2021.2.3,Linux x86_64,60.08893162,,,,,,,,,,,,,,,,,,,,,
,,,,,,3,0,3,0,1,0,001,2022-05-03_11h36.07.083,Digit Span Task,2021.2.3,Linux x86_64,60.08893162,,,,,,,,,,,,,,,,,,,,,
,,,,,,4,0,4,0,1,0,001,2022-05-03_11h36.07.083,Digit Span Task,2021.2.3,Linux x86_64,60.08893162,,,,,,,,,,,,,,,,,,,,,
,,,,,,5,0,5,0,1,0,001,2022-05-03_11h36.07.083,Digit Span Task,2021.2.3,Linux x86_64,60.08893162,,,,,,,,,,,,,,,,,,,,,
,,,,,,6,0,6,0,1,0,001,2022-05-03_11h36.07.083,Digit Span Task,2021.2.3,Linux x86_64,60.08893162,,,,,,,,,,,,,,,,,,,,,
,,,,,,,,,,,0,001,2022-05-03_11h36.07.083,Digit Span Task,2021.2.3,Linux x86_64,60.08893162,42584371,0,0.001298507,-0.376743793,1,0,0,cont_button,0,1,1,1,1,7,2544371,,,,,,
,,,,,,0,0,0,0,1,0,001,2022-05-03_11h36.07.083,Digit Span Task,2021.2.3,Linux x86_64,60.08893162,,,,,,,,,,,,,,,,,,,,,
,,,,,,1,0,1,0,1,0,001,2022-05-03_11h36.07.083,Digit Span Task,2021.2.3,Linux x86_64,60.08893162,,,,,,,,,,,,,,,,,,,,,
,,,,,,2,0,2,0,1,0,001,2022-05-03_11h36.07.083,Digit Span Task,2021.2.3,Linux x86_64,60.08893162,,,,,,,,,,,,,,,,,,,,,
,,,,,,3,0,3,0,1,0,001,2022-05-03_11h36.07.083,Digit Span Task,2021.2.3,Linux x86_64,60.08893162,,,,,,,,,,,,,,,,,,,,,
,,,,,,4,0,4,0,1,0,001,2022-05-03_11h36.07.083,Digit Span Task,2021.2.3,Linux x86_64,60.08893162,,,,,,,,,,,,,,,,,,,,,
,,,,,,5,0,5,0,1,0,001,2022-05-03_11h36.07.083,Digit Span Task,2021.2.3,Linux x86_64,60.08893162,,,,,,,,,,,,,,,,,,,,,
,,,,,,6,0,6,0,1,0,001,2022-05-03_11h36.07.083,Digit Span Task,2021.2.3,Linux x86_64,60.08893162,,,,,,,,,,,,,,,,,,,,,
,,,,,,,,,,,0,001,2022-05-03_11h36.07.083,Digit Span Task,2021.2.3,Linux x86_64,60.08893162,8875085,1,0.017737707,-0.382369121,1,0,0,cont_button,0,2,2,2,1,7,8875085,,,,,,
,,,,,,,,,,,0,001,2022-05-03_11h36.07.083,Digit Span Task,2021.2.3,Linux x86_64,60.08893162,,,,,,,,,,,,,,,,0,4,4,4,1,seven.xlsx
,,,,,,0,0,0,0,1,0,001,2022-05-03_11h36.07.083,Digit Span Task,2021.2.3,Linux x86_64,60.08893162,,,,,,,,,,,,,,,,,,,,,
,,,,,,1,0,1,0,1,0,001,2022-05-03_11h36.07.083,Digit Span Task,2021.2.3,Linux x86_64,60.08893162,,,,,,,,,,,,,,,,,,,,,
,,,,,,2,0,2,0,1,0,001,2022-05-03_11h36.07.083,Digit Span Task,2021.2.3,Linux x86_64,60.08893162,,,,,,,,,,,,,,,,,,,,,
,,,,,,3,0,3,0,1,0,001,2022-05-03_11h36.07.083,Digit Span Task,2021.2.3,Linux x86_64,60.08893162,,,,,,,,,,,,,,,,,,,,,
,,,,,,4,0,4,0,1,0,001,2022-05-03_11h36.07.083,Digit Span Task,2021.2.3,Linux x86_64,60.08893162,,,,,,,,,,,,,,,,,,,,,
,,,,,,5,0,5,0,1,0,001,2022-05-03_11h36.07.083,Digit Span Task,2021.2.3,Linux x86_64,60.08893162,,,,,,,,,,,,,,,,,,,,,
,,,,,,6,0,6,0,1,0,001,2022-05-03_11h36.07.083,Digit Span Task,2021.2.3,Linux x86_64,60.08893162,,,,,,,,,,,,,,,,,,,,,
,,,,,,7,0,7,0,1,0,001,2022-05-03_11h36.07.083,Digit Span Task,2021.2.3,Linux x86_64,60.08893162,,,,,,,,,,,,,,,,,,,,,
,,,,,,,,,,,0,001,2022-05-03_11h36.07.083,Digit Span Task,2021.2.3,Linux x86_64,60.08893162,4422980,0,0.035308917,-0.379776398,1,0,0,cont_button,0,0,0,0,1,8,46229408,,,,,,
,,,,,,0,0,0,0,1,0,001,2022-05-03_11h36.07.083,Digit Span Task,2021.2.3,Linux x86_64,60.08893162,,,,,,,,,,,,,,,,,,,,,
,,,,,,1,0,1,0,1,0,001,2022-05-03_11h36.07.083,Digit Span Task,2021.2.3,Linux x86_64,60.08893162,,,,,,,,,,,,,,,,,,,,,
,,,,,,2,0,2,0,1,0,001,2022-05-03_11h36.07.083,Digit Span Task,2021.2.3,Linux x86_64,60.08893162,,,,,,,,,,,,,,,,,,,,,
,,,,,,3,0,3,0,1,0,001,2022-05-03_11h36.07.083,Digit Span Task,2021.2.3,Linux x86_64,60.08893162,,,,,,,,,,,,,,,,,,,,,
,,,,,,4,0,4,0,1,0,001,2022-05-03_11h36.07.083,Digit Span Task,2021.2.3,Linux x86_64,60.08893162,,,,,,,,,,,,,,,,,,,,,
,,,,,,5,0,5,0,1,0,001,2022-05-03_11h36.07.083,Digit Span Task,2021.2.3,Linux x86_64,60.08893162,,,,,,,,,,,,,,,,,,,,,
,,,,,,6,0,6,0,1,0,001,2022-05-03_11h36.07.083,Digit Span Task,2021.2.3,Linux x86_64,60.08893162,,,,,,,,,,,,,,,,,,,,,
,,,,,,7,0,7,0,1,0,001,2022-05-03_11h36.07.083,Digit Span Task,2021.2.3,Linux x86_64,60.08893162,,,,,,,,,,,,,,,,,,,,,
,,,,,,,,,,,0,001,2022-05-03_11h36.07.083,Digit Span Task,2021.2.3,Linux x86_64,60.08893162,78967882,0,0.018028816,-0.400111437,1,0,0,cont_button,0,1,1,1,1,8,70967882,,,,,,
,,,,,,0,0,0,0,1,0,001,2022-05-03_11h36.07.083,Digit Span Task,2021.2.3,Linux x86_64,60.08893162,,,,,,,,,,,,,,,,,,,,,
,,,,,,1,0,1,0,1,0,001,2022-05-03_11h36.07.083,Digit Span Task,2021.2.3,Linux x86_64,60.08893162,,,,,,,,,,,,,,,,,,,,,
,,,,,,2,0,2,0,1,0,001,2022-05-03_11h36.07.083,Digit Span Task,2021.2.3,Linux x86_64,60.08893162,,,,,,,,,,,,,,,,,,,,,
,,,,,,3,0,3,0,1,0,001,2022-05-03_11h36.07.083,Digit Span Task,2021.2.3,Linux x86_64,60.08893162,,,,,,,,,,,,,,,,,,,,,
,,,,,,4,0,4,0,1,0,001,2022-05-03_11h36.07.083,Digit Span Task,2021.2.3,Linux x86_64,60.08893162,,,,,,,,,,,,,,,,,,,,,
,,,,,,5,0,5,0,1,0,001,2022-05-03_11h36.07.083,Digit Span Task,2021.2.3,Linux x86_64,60.08893162,,,,,,,,,,,,,,,,,,,,,
,,,,,,6,0,6,0,1,0,001,2022-05-03_11h36.07.083,Digit Span Task,2021.2.3,Linux x86_64,60.08893162,,,,,,,,,,,,,,,,,,,,,
,,,,,,7,0,7,0,1,0,001,2022-05-03_11h36.07.083,Digit Span Task,2021.2.3,Linux x86_64,60.08893162,,,,,,,,,,,,,,,,,,,,,
,,,,,,,,,,,0,001,2022-05-03_11h36.07.083,Digit Span Task,2021.2.3,Linux x86_64,60.08893162,27339320,0,0.073494355,-0.383923531,1,0,0,cont_button,0,2,2,2,1,8,27139320,,,,,,
,,,,,,,,,,,0,001,2022-05-03_11h36.07.083,Digit Span Task,2021.2.3,Linux x86_64,60.08893162,,,,,,,,,,,,,,,,0,5,5,5,1,eight.xlsx
,,,,,,0,0,0,0,1,0,001,2022-05-03_11h36.07.083,Digit Span Task,2021.2.3,Linux x86_64,60.08893162,,,,,,,,,,,,,,,,,,,,,
,,,,,,1,0,1,0,1,0,001,2022-05-03_11h36.07.083,Digit Span Task,2021.2.3,Linux x86_64,60.08893162,,,,,,,,,,,,,,,,,,,,,
,,,,,,2,0,2,0,1,0,001,2022-05-03_11h36.07.083,Digit Span Task,2021.2.3,Linux x86_64,60.08893162,,,,,,,,,,,,,,,,,,,,,
,,,,,,3,0,3,0,1,0,001,2022-05-03_11h36.07.083,Digit Span Task,2021.2.3,Linux x86_64,60.08893162,,,,,,,,,,,,,,,,,,,,,
,,,,,,4,0,4,0,1,0,001,2022-05-03_11h36.07.083,Digit Span Task,2021.2.3,Linux x86_64,60.08893162,,,,,,,,,,,,,,,,,,,,,
,,,,,,5,0,5,0,1,0,001,2022-05-03_11h36.07.083,Digit Span Task,2021.2.3,Linux x86_64,60.08893162,,,,,,,,,,,,,,,,,,,,,
,,,,,,6,0,6,0,1,0,001,2022-05-03_11h36.07.083,Digit Span Task,2021.2.3,Linux x86_64,60.08893162,,,,,,,,,,,,,,,,,,,,,
,,,,,,7,0,7,0,1,0,001,2022-05-03_11h36.07.083,Digit Span Task,2021.2.3,Linux x86_64,60.08893162,,,,,,,,,,,,,,,,,,,,,
,,,,,,8,0,8,0,1,0,001,2022-05-03_11h36.07.083,Digit Span Task,2021.2.3,Linux x86_64,60.08893162,,,,,,,,,,,,,,,,,,,,,
,,,,,,,,,,,0,001,2022-05-03_11h36.07.083,Digit Span Task,2021.2.3,Linux x86_64,60.08893162,3693740,0,0.034373283,-0.37808005,1,0,0,cont_button,0,0,0,0,1,9,368373442,,,,,,
,,,,,,0,0,0,0,1,0,001,2022-05-03_11h36.07.083,Digit Span Task,2021.2.3,Linux x86_64,60.08893162,,,,,,,,,,,,,,,,,,,,,
,,,,,,1,0,1,0,1,0,001,2022-05-03_11h36.07.083,Digit Span Task,2021.2.3,Linux x86_64,60.08893162,,,,,,,,,,,,,,,,,,,,,
,,,,,,2,0,2,0,1,0,001,2022-05-03_11h36.07.083,Digit Span Task,2021.2.3,Linux x86_64,60.08893162,,,,,,,,,,,,,,,,,,,,,
,,,,,,3,0,3,0,1,0,001,2022-05-03_11h36.07.083,Digit Span Task,2021.2.3,Linux x86_64,60.08893162,,,,,,,,,,,,,,,,,,,,,
,,,,,,4,0,4,0,1,0,001,2022-05-03_11h36.07.083,Digit Span Task,2021.2.3,Linux x86_64,60.08893162,,,,,,,,,,,,,,,,,,,,,
,,,,,,5,0,5,0,1,0,001,2022-05-03_11h36.07.083,Digit Span Task,2021.2.3,Linux x86_64,60.08893162,,,,,,,,,,,,,,,,,,,,,
,,,,,,6,0,6,0,1,0,001,2022-05-03_11h36.07.083,Digit Span Task,2021.2.3,Linux x86_64,60.08893162,,,,,,,,,,,,,,,,,,,,,
,,,,,,7,0,7,0,1,0,001,2022-05-03_11h36.07.083,Digit Span Task,2021.2.3,Linux x86_64,60.08893162,,,,,,,,,,,,,,,,,,,,,
,,,,,,8,0,8,0,1,0,001,2022-05-03_11h36.07.083,Digit Span Task,2021.2.3,Linux x86_64,60.08893162,,,,,,,,,,,,,,,,,,,,,
,,,,,,,,,,,0,001,2022-05-03_11h36.07.083,Digit Span Task,2021.2.3,Linux x86_64,60.08893162,5673209,0,0.091095289,-0.371537924,1,0,0,cont_button,0,1,1,1,1,9,576270919,,,,,,
,,,,,,0,0,0,0,1,0,001,2022-05-03_11h36.07.083,Digit Span Task,2021.2.3,Linux x86_64,60.08893162,,,,,,,,,,,,,,,,,,,,,
,,,,,,1,0,1,0,1,0,001,2022-05-03_11h36.07.083,Digit Span Task,2021.2.3,Linux x86_64,60.08893162,,,,,,,,,,,,,,,,,,,,,
,,,,,,2,0,2,0,1,0,001,2022-05-03_11h36.07.083,Digit Span Task,2021.2.3,Linux x86_64,60.08893162,,,,,,,,,,,,,,,,,,,,,
,,,,,,3,0,3,0,1,0,001,2022-05-03_11h36.07.083,Digit Span Task,2021.2.3,Linux x86_64,60.08893162,,,,,,,,,,,,,,,,,,,,,
,,,,,,4,0,4,0,1,0,001,2022-05-03_11h36.07.083,Digit Span Task,2021.2.3,Linux x86_64,60.08893162,,,,,,,,,,,,,,,,,,,,,
,,,,,,5,0,5,0,1,0,001,2022-05-03_11h36.07.083,Digit Span Task,2021.2.3,Linux x86_64,60.08893162,,,,,,,,,,,,,,,,,,,,,
,,,,,,6,0,6,0,1,0,001,2022-05-03_11h36.07.083,Digit Span Task,2021.2.3,Linux x86_64,60.08893162,,,,,,,,,,,,,,,,,,,,,
,,,,,,7,0,7,0,1,0,001,2022-05-03_11h36.07.083,Digit Span Task,2021.2.3,Linux x86_64,60.08893162,,,,,,,,,,,,,,,,,,,,,
,,,,,,8,0,8,0,1,0,001,2022-05-03_11h36.07.083,Digit Span Task,2021.2.3,Linux x86_64,60.08893162,,,,,,,,,,,,,,,,,,,,,
,,,,,,,,,,,0,001,2022-05-03_11h36.07.083,Digit Span Task,2021.2.3,Linux x86_64,60.08893162,"68865598
",0,0.013378143,-0.409823259,1,0,0,cont_button,0,2,2,2,1,9,688655957,,,,,,
,,,,,,,,,,,0,001,2022-05-03_11h36.07.083,Digit Span Task,2021.2.3,Linux x86_64,60.08893162,,,,,,,,,,,,,,,,0,6,6,6,1,nine.xlsx
,,,,,,0,0,0,0,1,0,001,2022-05-03_11h36.07.083,Digit Span Task,2021.2.3,Linux x86_64,60.08893162,,,,,,,,,,,,,,,,,,,,,
,,,,,,1,0,1,0,1,0,001,2022-05-03_11h36.07.083,Digit Span Task,2021.2.3,Linux x86_64,60.08893162,,,,,,,,,,,,,,,,,,,,,
,,,,,,2,0,2,0,1,0,001,2022-05-03_11h36.07.083,Digit Span Task,2021.2.3,Linux x86_64,60.08893162,,,,,,,,,,,,,,,,,,,,,
,,,,,,3,0,3,0,1,0,001,2022-05-03_11h36.07.083,Digit Span Task,2021.2.3,Linux x86_64,60.08893162,,,,,,,,,,,,,,,,,,,,,
,,,,,,4,0,4,0,1,0,001,2022-05-03_11h36.07.083,Digit Span Task,2021.2.3,Linux x86_64,60.08893162,,,,,,,,,,,,,,,,,,,,,
,,,,,,5,0,5,0,1,0,001,2022-05-03_11h36.07.083,Digit Span Task,2021.2.3,Linux x86_64,60.08893162,,,,,,,,,,,,,,,,,,,,,
,,,,,,6,0,6,0,1,0,001,2022-05-03_11h36.07.083,Digit Span Task,2021.2.3,Linux x86_64,60.08893162,,,,,,,,,,,,,,,,,,,,,
,,,,,,7,0,7,0,1,0,001,2022-05-03_11h36.07.083,Digit Span Task,2021.2.3,Linux x86_64,60.08893162,,,,,,,,,,,,,,,,,,,,,
,,,,,,8,0,8,0,1,0,001,2022-05-03_11h36.07.083,Digit Span Task,2021.2.3,Linux x86_64,60.08893162,,,,,,,,,,,,,,,,,,,,,
,,,,,,9,0,9,0,1,0,001,2022-05-03_11h36.07.083,Digit Span Task,2021.2.3,Linux x86_64,60.08893162,,,,,,,,,,,,,,,,,,,,,
,,,,,,,,,,,0,001,2022-05-03_11h36.07.083,Digit Span Task,2021.2.3,Linux x86_64,60.08893162,6483904,0,0.062942902,-0.418124437,1,0,0,cont_button,0,0,0,0,1,10,6432900801,,,,,,
,,,,,,0,0,0,0,1,0,001,2022-05-03_11h36.07.083,Digit Span Task,2021.2.3,Linux x86_64,60.08893162,,,,,,,,,,,,,,,,,,,,,
,,,,,,1,0,1,0,1,0,001,2022-05-03_11h36.07.083,Digit Span Task,2021.2.3,Linux x86_64,60.08893162,,,,,,,,,,,,,,,,,,,,,
,,,,,,2,0,2,0,1,0,001,2022-05-03_11h36.07.083,Digit Span Task,2021.2.3,Linux x86_64,60.08893162,,,,,,,,,,,,,,,,,,,,,
,,,,,,3,0,3,0,1,0,001,2022-05-03_11h36.07.083,Digit Span Task,2021.2.3,Linux x86_64,60.08893162,,,,,,,,,,,,,,,,,,,,,
,,,,,,4,0,4,0,1,0,001,2022-05-03_11h36.07.083,Digit Span Task,2021.2.3,Linux x86_64,60.08893162,,,,,,,,,,,,,,,,,,,,,
,,,,,,5,0,5,0,1,0,001,2022-05-03_11h36.07.083,Digit Span Task,2021.2.3,Linux x86_64,60.08893162,,,,,,,,,,,,,,,,,,,,,
,,,,,,6,0,6,0,1,0,001,2022-05-03_11h36.07.083,Digit Span Task,2021.2.3,Linux x86_64,60.08893162,,,,,,,,,,,,,,,,,,,,,
,,,,,,7,0,7,0,1,0,001,2022-05-03_11h36.07.083,Digit Span Task,2021.2.3,Linux x86_64,60.08893162,,,,,,,,,,,,,,,,,,,,,
,,,,,,8,0,8,0,1,0,001,2022-05-03_11h36.07.083,Digit Span Task,2021.2.3,Linux x86_64,60.08893162,,,,,,,,,,,,,,,,,,,,,
,,,,,,9,0,9,0,1,0,001,2022-05-03_11h36.07.083,Digit Span Task,2021.2.3,Linux x86_64,60.08893162,,,,,,,,,,,,,,,,,,,,,
,,,,,,,,,,,0,001,2022-05-03_11h36.07.083,Digit Span Task,2021.2.3,Linux x86_64,60.08893162,64832967,0,0.024257739,-0.391432047,1,0,0,cont_button,0,1,1,1,1,10,8467348927,,,,,,
,,,,,,0,0,0,0,1,0,001,2022-05-03_11h36.07.083,Digit Span Task,2021.2.3,Linux x86_64,60.08893162,,,,,,,,,,,,,,,,,,,,,
,,,,,,1,0,1,0,1,0,001,2022-05-03_11h36.07.083,Digit Span Task,2021.2.3,Linux x86_64,60.08893162,,,,,,,,,,,,,,,,,,,,,
,,,,,,2,0,2,0,1,0,001,2022-05-03_11h36.07.083,Digit Span Task,2021.2.3,Linux x86_64,60.08893162,,,,,,,,,,,,,,,,,,,,,
,,,,,,3,0,3,0,1,0,001,2022-05-03_11h36.07.083,Digit Span Task,2021.2.3,Linux x86_64,60.08893162,,,,,,,,,,,,,,,,,,,,,
,,,,,,4,0,4,0,1,0,001,2022-05-03_11h36.07.083,Digit Span Task,2021.2.3,Linux x86_64,60.08893162,,,,,,,,,,,,,,,,,,,,,
,,,,,,5,0,5,0,1,0,001,2022-05-03_11h36.07.083,Digit Span Task,2021.2.3,Linux x86_64,60.08893162,,,,,,,,,,,,,,,,,,,,,
,,,,,,6,0,6,0,1,0,001,2022-05-03_11h36.07.083,Digit Span Task,2021.2.3,Linux x86_64,60.08893162,,,,,,,,,,,,,,,,,,,,,
,,,,,,7,0,7,0,1,0,001,2022-05-03_11h36.07.083,Digit Span Task,2021.2.3,Linux x86_64,60.08893162,,,,,,,,,,,,,,,,,,,,,
,,,,,,8,0,8,0,1,0,001,2022-05-03_11h36.07.083,Digit Span Task,2021.2.3,Linux x86_64,60.08893162,,,,,,,,,,,,,,,,,,,,,
,,,,,,9,0,9,0,1,0,001,2022-05-03_11h36.07.083,Digit Span Task,2021.2.3,Linux x86_64,60.08893162,,,,,,,,,,,,,,,,,,,,,
,,,,,,,,,,,0,001,2022-05-03_11h36.07.083,Digit Span Task,2021.2.3,Linux x86_64,60.08893162,41849601,0,0.01258556,-0.392381748,1,0,0,cont_button,0,2,2,2,1,10,4184946413,,,,,,
,,,,,,,,,,,0,001,2022-05-03_11h36.07.083,Digit Span Task,2021.2.3,Linux x86_64,60.08893162,,,,,,,,,,,,,,,,0,7,7,7,1,ten.xlsx
,,,,,,0,0,0,0,1,0,001,2022-05-03_11h36.07.083,Digit Span Task,2021.2.3,Linux x86_64,60.08893162,,,,,,,,,,,,,,,,,,,,,
,,,,,,1,0,1,0,1,0,001,2022-05-03_11h36.07.083,Digit Span Task,2021.2.3,Linux x86_64,60.08893162,,,,,,,,,,,,,,,,,,,,,
,,,,,,2,0,2,0,1,0,001,2022-05-03_11h36.07.083,Digit Span Task,2021.2.3,Linux x86_64,60.08893162,,,,,,,,,,,,,,,,,,,,,
,,,,,,3,0,3,0,1,0,001,2022-05-03_11h36.07.083,Digit Span Task,2021.2.3,Linux x86_64,60.08893162,,,,,,,,,,,,,,,,,,,,,
,,,,,,4,0,4,0,1,0,001,2022-05-03_11h36.07.083,Digit Span Task,2021.2.3,Linux x86_64,60.08893162,,,,,,,,,,,,,,,,,,,,,
,,,,,,5,0,5,0,1,0,001,2022-05-03_11h36.07.083,Digit Span Task,2021.2.3,Linux x86_64,60.08893162,,,,,,,,,,,,,,,,,,,,,
,,,,,,6,0,6,0,1,0,001,2022-05-03_11h36.07.083,Digit Span Task,2021.2.3,Linux x86_64,60.08893162,,,,,,,,,,,,,,,,,,,,,
,,,,,,7,0,7,0,1,0,001,2022-05-03_11h36.07.083,Digit Span Task,2021.2.3,Linux x86_64,60.08893162,,,,,,,,,,,,,,,,,,,,,
,,,,,,8,0,8,0,1,0,001,2022-05-03_11h36.07.083,Digit Span Task,2021.2.3,Linux x86_64,60.08893162,,,,,,,,,,,,,,,,,,,,,
,,,,,,9,0,9,0,1,0,001,2022-05-03_11h36.07.083,Digit Span Task,2021.2.3,Linux x86_64,60.08893162,,,,,,,,,,,,,,,,,,,,,
,,,,,,10,0,10,0,1,0,001,2022-05-03_11h36.07.083,Digit Span Task,2021.2.3,Linux x86_64,60.08893162,,,,,,,,,,,,,,,,,,,,,
,,,,,,,,,,,0,001,2022-05-03_11h36.07.083,Digit Span Task,2021.2.3,Linux x86_64,60.08893162,746393,0,0.007996082,-0.403157632,1,0,0,cont_button,0,0,0,0,1,11,73290740563,,,,,,
,,,,,,0,0,0,0,1,0,001,2022-05-03_11h36.07.083,Digit Span Task,2021.2.3,Linux x86_64,60.08893162,,,,,,,,,,,,,,,,,,,,,
,,,,,,1,0,1,0,1,0,001,2022-05-03_11h36.07.083,Digit Span Task,2021.2.3,Linux x86_64,60.08893162,,,,,,,,,,,,,,,,,,,,,
,,,,,,2,0,2,0,1,0,001,2022-05-03_11h36.07.083,Digit Span Task,2021.2.3,Linux x86_64,60.08893162,,,,,,,,,,,,,,,,,,,,,
,,,,,,3,0,3,0,1,0,001,2022-05-03_11h36.07.083,Digit Span Task,2021.2.3,Linux x86_64,60.08893162,,,,,,,,,,,,,,,,,,,,,
,,,,,,4,0,4,0,1,0,001,2022-05-03_11h36.07.083,Digit Span Task,2021.2.3,Linux x86_64,60.08893162,,,,,,,,,,,,,,,,,,,,,
,,,,,,5,0,5,0,1,0,001,2022-05-03_11h36.07.083,Digit Span Task,2021.2.3,Linux x86_64,60.08893162,,,,,,,,,,,,,,,,,,,,,
,,,,,,6,0,6,0,1,0,001,2022-05-03_11h36.07.083,Digit Span Task,2021.2.3,Linux x86_64,60.08893162,,,,,,,,,,,,,,,,,,,,,
,,,,,,7,0,7,0,1,0,001,2022-05-03_11h36.07.083,Digit Span Task,2021.2.3,Linux x86_64,60.08893162,,,,,,,,,,,,,,,,,,,,,
,,,,,,8,0,8,0,1,0,001,2022-05-03_11h36.07.083,Digit Span Task,2021.2.3,Linux x86_64,60.08893162,,,,,,,,,,,,,,,,,,,,,
,,,,,,9,0,9,0,1,0,001,2022-05-03_11h36.07.083,Digit Span Task,2021.2.3,Linux x86_64,60.08893162,,,,,,,,,,,,,,,,,,,,,
,,,,,,10,0,10,0,1,0,001,2022-05-03_11h36.07.083,Digit Span Task,2021.2.3,Linux x86_64,60.08893162,,,,,,,,,,,,,,,,,,,,,
,,,,,,,,,,,0,001,2022-05-03_11h36.07.083,Digit Span Task,2021.2.3,Linux x86_64,60.08893162,948772,0,0.063783964,-0.390678406,1,0,0,cont_button,0,1,1,1,1,11,74948772224,,,,,,
,,,,,,0,0,0,0,1,0,001,2022-05-03_11h36.07.083,Digit Span Task,2021.2.3,Linux x86_64,60.08893162,,,,,,,,,,,,,,,,,,,,,
,,,,,,1,0,1,0,1,0,001,2022-05-03_11h36.07.083,Digit Span Task,2021.2.3,Linux x86_64,60.08893162,,,,,,,,,,,,,,,,,,,,,
,,,,,,2,0,2,0,1,0,001,2022-05-03_11h36.07.083,Digit Span Task,2021.2.3,Linux x86_64,60.08893162,,,,,,,,,,,,,,,,,,,,,
,,,,,,3,0,3,0,1,0,001,2022-05-03_11h36.07.083,Digit Span Task,2021.2.3,Linux x86_64,60.08893162,,,,,,,,,,,,,,,,,,,,,
,,,,,,4,0,4,0,1,0,001,2022-05-03_11h36.07.083,Digit Span Task,2021.2.3,Linux x86_64,60.08893162,,,,,,,,,,,,,,,,,,,,,
,,,,,,5,0,5,0,1,0,001,2022-05-03_11h36.07.083,Digit Span Task,2021.2.3,Linux x86_64,60.08893162,,,,,,,,,,,,,,,,,,,,,
,,,,,,6,0,6,0,1,0,001,2022-05-03_11h36.07.083,Digit Span Task,2021.2.3,Linux x86_64,60.08893162,,,,,,,,,,,,,,,,,,,,,
,,,,,,7,0,7,0,1,0,001,2022-05-03_11h36.07.083,Digit Span Task,2021.2.3,Linux x86_64,60.08893162,,,,,,,,,,,,,,,,,,,,,
,,,,,,8,0,8,0,1,0,001,2022-05-03_11h36.07.083,Digit Span Task,2021.2.3,Linux x86_64,60.08893162,,,,,,,,,,,,,,,,,,,,,
,,,,,,9,0,9,0,1,0,001,2022-05-03_11h36.07.083,Digit Span Task,2021.2.3,Linux x86_64,60.08893162,,,,,,,,,,,,,,,,,,,,,
,,,,,,10,0,10,0,1,0,001,2022-05-03_11h36.07.083,Digit Span Task,2021.2.3,Linux x86_64,60.08893162,,,,,,,,,,,,,,,,,,,,,
,,,,,,,,,,,0,001,2022-05-03_11h36.07.083,Digit Span Task,2021.2.3,Linux x86_64,60.08893162,72207 ,0,0.04732879,-0.391106844,1,0,0,cont_button,0,2,2,2,1,11,97084622072,,,,,,
,,,,,,,,,,,0,001,2022-05-03_11h36.07.083,Digit Span Task,2021.2.3,Linux x86_64,60.08893162,,,,,,,,,,,,,,,,0,8,8,8,1,eleven.xlsx
,,,,,,0,0,0,0,1,0,001,2022-05-03_11h36.07.083,Digit Span Task,2021.2.3,Linux x86_64,60.08893162,,,,,,,,,,,,,,,,,,,,,
,,,,,,1,0,1,0,1,0,001,2022-05-03_11h36.07.083,Digit Span Task,2021.2.3,Linux x86_64,60.08893162,,,,,,,,,,,,,,,,,,,,,
,,,,,,2,0,2,0,1,0,001,2022-05-03_11h36.07.083,Digit Span Task,2021.2.3,Linux x86_64,60.08893162,,,,,,,,,,,,,,,,,,,,,
,,,,,,3,0,3,0,1,0,001,2022-05-03_11h36.07.083,Digit Span Task,2021.2.3,Linux x86_64,60.08893162,,,,,,,,,,,,,,,,,,,,,
,,,,,,4,0,4,0,1,0,001,2022-05-03_11h36.07.083,Digit Span Task,2021.2.3,Linux x86_64,60.08893162,,,,,,,,,,,,,,,,,,,,,
,,,,,,5,0,5,0,1,0,001,2022-05-03_11h36.07.083,Digit Span Task,2021.2.3,Linux x86_64,60.08893162,,,,,,,,,,,,,,,,,,,,,
,,,,,,6,0,6,0,1,0,001,2022-05-03_11h36.07.083,Digit Span Task,2021.2.3,Linux x86_64,60.08893162,,,,,,,,,,,,,,,,,,,,,
,,,,,,7,0,7,0,1,0,001,2022-05-03_11h36.07.083,Digit Span Task,2021.2.3,Linux x86_64,60.08893162,,,,,,,,,,,,,,,,,,,,,
,,,,,,8,0,8,0,1,0,001,2022-05-03_11h36.07.083,Digit Span Task,2021.2.3,Linux x86_64,60.08893162,,,,,,,,,,,,,,,,,,,,,
,,,,,,9,0,9,0,1,0,001,2022-05-03_11h36.07.083,Digit Span Task,2021.2.3,Linux x86_64,60.08893162,,,,,,,,,,,,,,,,,,,,,
,,,,,,10,0,10,0,1,0,001,2022-05-03_11h36.07.083,Digit Span Task,2021.2.3,Linux x86_64,60.08893162,,,,,,,,,,,,,,,,,,,,,
,,,,,,11,0,11,0,1,0,001,2022-05-03_11h36.07.083,Digit Span Task,2021.2.3,Linux x86_64,60.08893162,,,,,,,,,,,,,,,,,,,,,
,,,,,,,,,,,0,001,2022-05-03_11h36.07.083,Digit Span Task,2021.2.3,Linux x86_64,60.08893162,68134509,0,0.070973714,-0.398544868,1,0,0,cont_button,0,0,0,0,1,12,6.81346E+11,,,,,,
,,,,,,0,0,0,0,1,0,001,2022-05-03_11h36.07.083,Digit Span Task,2021.2.3,Linux x86_64,60.08893162,,,,,,,,,,,,,,,,,,,,,
,,,,,,1,0,1,0,1,0,001,2022-05-03_11h36.07.083,Digit Span Task,2021.2.3,Linux x86_64,60.08893162,,,,,,,,,,,,,,,,,,,,,
,,,,,,2,0,2,0,1,0,001,2022-05-03_11h36.07.083,Digit Span Task,2021.2.3,Linux x86_64,60.08893162,,,,,,,,,,,,,,,,,,,,,
,,,,,,3,0,3,0,1,0,001,2022-05-03_11h36.07.083,Digit Span Task,2021.2.3,Linux x86_64,60.08893162,,,,,,,,,,,,,,,,,,,,,
,,,,,,4,0,4,0,1,0,001,2022-05-03_11h36.07.083,Digit Span Task,2021.2.3,Linux x86_64,60.08893162,,,,,,,,,,,,,,,,,,,,,
,,,,,,5,0,5,0,1,0,001,2022-05-03_11h36.07.083,Digit Span Task,2021.2.3,Linux x86_64,60.08893162,,,,,,,,,,,,,,,,,,,,,
,,,,,,6,0,6,0,1,0,001,2022-05-03_11h36.07.083,Digit Span Task,2021.2.3,Linux x86_64,60.08893162,,,,,,,,,,,,,,,,,,,,,
,,,,,,7,0,7,0,1,0,001,2022-05-03_11h36.07.083,Digit Span Task,2021.2.3,Linux x86_64,60.08893162,,,,,,,,,,,,,,,,,,,,,
,,,,,,8,0,8,0,1,0,001,2022-05-03_11h36.07.083,Digit Span Task,2021.2.3,Linux x86_64,60.08893162,,,,,,,,,,,,,,,,,,,,,
,,,,,,9,0,9,0,1,0,001,2022-05-03_11h36.07.083,Digit Span Task,2021.2.3,Linux x86_64,60.08893162,,,,,,,,,,,,,,,,,,,,,
,,,,,,10,0,10,0,1,0,001,2022-05-03_11h36.07.083,Digit Span Task,2021.2.3,Linux x86_64,60.08893162,,,,,,,,,,,,,,,,,,,,,
,,,,,,11,0,11,0,1,0,001,2022-05-03_11h36.07.083,Digit Span Task,2021.2.3,Linux x86_64,60.08893162,,,,,,,,,,,,,,,,,,,,,
,,,,,,,,,,,0,001,2022-05-03_11h36.07.083,Digit Span Task,2021.2.3,Linux x86_64,60.08893162,87,0,0.050162474,-0.400974909,1,0,0,cont_button,0,1,1,1,1,12,8.7238E+11,,,,,,
,,,,,,0,0,0,0,1,0,001,2022-05-03_11h36.07.083,Digit Span Task,2021.2.3,Linux x86_64,60.08893162,,,,,,,,,,,,,,,,,,,,,
,,,,,,1,0,1,0,1,0,001,2022-05-03_11h36.07.083,Digit Span Task,2021.2.3,Linux x86_64,60.08893162,,,,,,,,,,,,,,,,,,,,,
,,,,,,2,0,2,0,1,0,001,2022-05-03_11h36.07.083,Digit Span Task,2021.2.3,Linux x86_64,60.08893162,,,,,,,,,,,,,,,,,,,,,
,,,,,,3,0,3,0,1,0,001,2022-05-03_11h36.07.083,Digit Span Task,2021.2.3,Linux x86_64,60.08893162,,,,,,,,,,,,,,,,,,,,,
,,,,,,4,0,4,0,1,0,001,2022-05-03_11h36.07.083,Digit Span Task,2021.2.3,Linux x86_64,60.08893162,,,,,,,,,,,,,,,,,,,,,
,,,,,,5,0,5,0,1,0,001,2022-05-03_11h36.07.083,Digit Span Task,2021.2.3,Linux x86_64,60.08893162,,,,,,,,,,,,,,,,,,,,,
,,,,,,6,0,6,0,1,0,001,2022-05-03_11h36.07.083,Digit Span Task,2021.2.3,Linux x86_64,60.08893162,,,,,,,,,,,,,,,,,,,,,
,,,,,,7,0,7,0,1,0,001,2022-05-03_11h36.07.083,Digit Span Task,2021.2.3,Linux x86_64,60.08893162,,,,,,,,,,,,,,,,,,,,,
,,,,,,8,0,8,0,1,0,001,2022-05-03_11h36.07.083,Digit Span Task,2021.2.3,Linux x86_64,60.08893162,,,,,,,,,,,,,,,,,,,,,
,,,,,,9,0,9,0,1,0,001,2022-05-03_11h36.07.083,Digit Span Task,2021.2.3,Linux x86_64,60.08893162,,,,,,,,,,,,,,,,,,,,,
,,,,,,10,0,10,0,1,0,001,2022-05-03_11h36.07.083,Digit Span Task,2021.2.3,Linux x86_64,60.08893162,,,,,,,,,,,,,,,,,,,,,
,,,,,,11,0,11,0,1,0,001,2022-05-03_11h36.07.083,Digit Span Task,2021.2.3,Linux x86_64,60.08893162,,,,,,,,,,,,,,,,,,,,,
,,,,,,,,,,,0,001,2022-05-03_11h36.07.083,Digit Span Task,2021.2.3,Linux x86_64,60.08893162,24172215,0,0.055704753,-0.402622541,1,0,0,cont_button,0,2,2,2,1,12,2.41072E+11,,,,,,
,,,,,,,,,,,0,001,2022-05-03_11h36.07.083,Digit Span Task,2021.2.3,Linux x86_64,60.08893162,,,,,,,,,,,,,,,,0,9,9,9,1,twelve.xlsx
,,,,,,0,0,0,0,1,0,001,2022-05-03_11h36.07.083,Digit Span Task,2021.2.3,Linux x86_64,60.08893162,,,,,,,,,,,,,,,,,,,,,
,,,,,,1,0,1,0,1,0,001,2022-05-03_11h36.07.083,Digit Span Task,2021.2.3,Linux x86_64,60.08893162,,,,,,,,,,,,,,,,,,,,,
,,,,,,2,0,2,0,1,0,001,2022-05-03_11h36.07.083,Digit Span Task,2021.2.3,Linux x86_64,60.08893162,,,,,,,,,,,,,,,,,,,,,
,,,,,,,,,,,0,001,2022-05-03_11h36.07.083,Digit Span Task,2021.2.3,Linux x86_64,60.08893162,2217,0,0.054418325,-0.392843485,1,0,0,cont_button,0,0,0,0,1,3,217,,,,,,
,,,,,,0,0,0,0,1,0,001,2022-05-03_11h36.07.083,Digit Span Task,2021.2.3,Linux x86_64,60.08893162,,,,,,,,,,,,,,,,,,,,,
,,,,,,1,0,1,0,1,0,001,2022-05-03_11h36.07.083,Digit Span Task,2021.2.3,Linux x86_64,60.08893162,,,,,,,,,,,,,,,,,,,,,
,,,,,,2,0,2,0,1,0,001,2022-05-03_11h36.07.083,Digit Span Task,2021.2.3,Linux x86_64,60.08893162,,,,,,,,,,,,,,,,,,,,,
,,,,,,,,,,,0,001,2022-05-03_11h36.07.083,Digit Span Task,2021.2.3,Linux x86_64,60.08893162,2486,0,0.07941699,-0.408666611,1,0,0,cont_button,0,1,1,1,1,3,486,,,,,,
,,,,,,0,0,0,0,1,0,001,2022-05-03_11h36.07.083,Digit Span Task,2021.2.3,Linux x86_64,60.08893162,,,,,,,,,,,,,,,,,,,,,
,,,,,,1,0,1,0,1,0,001,2022-05-03_11h36.07.083,Digit Span Task,2021.2.3,Linux x86_64,60.08893162,,,,,,,,,,,,,,,,,,,,,
,,,,,,2,0,2,0,1,0,001,2022-05-03_11h36.07.083,Digit Span Task,2021.2.3,Linux x86_64,60.08893162,,,,,,,,,,,,,,,,,,,,,
,,,,,,,,,,,0,001,2022-05-03_11h36.07.083,Digit Span Task,2021.2.3,Linux x86_64,60.08893162,760,1,0.064437628,-0.366004388,1,0,0,cont_button,0,2,2,2,1,3,760,,,,,,
,,,,,,,,,,,0,001,2022-05-03_11h36.07.083,Digit Span Task,2021.2.3,Linux x86_64,60.08893162,,,,,,,,,,,,,,,,1,0,10,0,1,three.xlsx
,,,,,,0,0,0,0,1,0,001,2022-05-03_11h36.07.083,Digit Span Task,2021.2.3,Linux x86_64,60.08893162,,,,,,,,,,,,,,,,,,,,,
,,,,,,1,0,1,0,1,0,001,2022-05-03_11h36.07.083,Digit Span Task,2021.2.3,Linux x86_64,60.08893162,,,,,,,,,,,,,,,,,,,,,
,,,,,,2,0,2,0,1,0,001,2022-05-03_11h36.07.083,Digit Span Task,2021.2.3,Linux x86_64,60.08893162,,,,,,,,,,,,,,,,,,,,,
,,,,,,3,0,3,0,1,0,001,2022-05-03_11h36.07.083,Digit Span Task,2021.2.3,Linux x86_64,60.08893162,,,,,,,,,,,,,,,,,,,,,
,,,,,,,,,,,0,001,2022-05-03_11h36.07.083,Digit Span Task,2021.2.3,Linux x86_64,60.08893162,3141,1,0.123483817,-0.380912701,1,0,0,cont_button,0,0,0,0,1,4,3141,,,,,,
,,,,,,0,0,0,0,1,0,001,2022-05-03_11h36.07.083,Digit Span Task,2021.2.3,Linux x86_64,60.08893162,,,,,,,,,,,,,,,,,,,,,
,,,,,,1,0,1,0,1,0,001,2022-05-03_11h36.07.083,Digit Span Task,2021.2.3,Linux x86_64,60.08893162,,,,,,,,,,,,,,,,,,,,,
,,,,,,2,0,2,0,1,0,001,2022-05-03_11h36.07.083,Digit Span Task,2021.2.3,Linux x86_64,60.08893162,,,,,,,,,,,,,,,,,,,,,
,,,,,,3,0,3,0,1,0,001,2022-05-03_11h36.07.083,Digit Span Task,2021.2.3,Linux x86_64,60.08893162,,,,,,,,,,,,,,,,,,,,,
,,,,,,,,,,,0,001,2022-05-03_11h36.07.083,Digit Span Task,2021.2.3,Linux x86_64,60.08893162,6351,1,0.143522104,-0.399811586,1,0,0,cont_button,0,1,1,1,1,4,6351,,,,,,
,,,,,,0,0,0,0,1,0,001,2022-05-03_11h36.07.083,Digit Span Task,2021.2.3,Linux x86_64,60.08893162,,,,,,,,,,,,,,,,,,,,,
,,,,,,1,0,1,0,1,0,001,2022-05-03_11h36.07.083,Digit Span Task,2021.2.3,Linux x86_64,60.08893162,,,,,,,,,,,,,,,,,,,,,
,,,,,,2,0,2,0,1,0,001,2022-05-03_11h36.07.083,Digit Span Task,2021.2.3,Linux x86_64,60.08893162,,,,,,,,,,,,,,,,,,,,,
,,,,,,3,0,3,0,1,0,001,2022-05-03_11h36.07.083,Digit Span Task,2021.2.3,Linux x86_64,60.08893162,,,,,,,,,,,,,,,,,,,,,
,,,,,,,,,,,0,001,2022-05-03_11h36.07.083,Digit Span Task,2021.2.3,Linux x86_64,60.08893162,2391,1,-0.046724478,-0.429297924,1,0,0,cont_button,0,2,2,2,1,4,2391,,,,,,
,,,,,,,,,,,0,001,2022-05-03_11h36.07.083,Digit Span Task,2021.2.3,Linux x86_64,60.08893162,,,,,,,,,,,,,,,,1,1,11,1,1,four.xlsx
,,,,,,0,0,0,0,1,0,001,2022-05-03_11h36.07.083,Digit Span Task,2021.2.3,Linux x86_64,60.08893162,,,,,,,,,,,,,,,,,,,,,
,,,,,,1,0,1,0,1,0,001,2022-05-03_11h36.07.083,Digit Span Task,2021.2.3,Linux x86_64,60.08893162,,,,,,,,,,,,,,,,,,,,,
,,,,,,2,0,2,0,1,0,001,2022-05-03_11h36.07.083,Digit Span Task,2021.2.3,Linux x86_64,60.08893162,,,,,,,,,,,,,,,,,,,,,
,,,,,,3,0,3,0,1,0,001,2022-05-03_11h36.07.083,Digit Span Task,2021.2.3,Linux x86_64,60.08893162,,,,,,,,,,,,,,,,,,,,,
,,,,,,4,0,4,0,1,0,001,2022-05-03_11h36.07.083,Digit Span Task,2021.2.3,Linux x86_64,60.08893162,,,,,,,,,,,,,,,,,,,,,
,,,,,,,,,,,0,001,2022-05-03_11h36.07.083,Digit Span Task,2021.2.3,Linux x86_64,60.08893162,241932,0,-0.037940184,-0.4216609,1,0,0,cont_button,0,0,0,0,1,5,14932,,,,,,
,,,,,,0,0,0,0,1,0,001,2022-05-03_11h36.07.083,Digit Span Task,2021.2.3,Linux x86_64,60.08893162,,,,,,,,,,,,,,,,,,,,,
,,,,,,1,0,1,0,1,0,001,2022-05-03_11h36.07.083,Digit Span Task,2021.2.3,Linux x86_64,60.08893162,,,,,,,,,,,,,,,,,,,,,
,,,,,,2,0,2,0,1,0,001,2022-05-03_11h36.07.083,Digit Span Task,2021.2.3,Linux x86_64,60.08893162,,,,,,,,,,,,,,,,,,,,,
,,,,,,3,0,3,0,1,0,001,2022-05-03_11h36.07.083,Digit Span Task,2021.2.3,Linux x86_64,60.08893162,,,,,,,,,,,,,,,,,,,,,
,,,,,,4,0,4,0,1,0,001,2022-05-03_11h36.07.083,Digit Span Task,2021.2.3,Linux x86_64,60.08893162,,,,,,,,,,,,,,,,,,,,,
,,,,,,,,,,,0,001,2022-05-03_11h36.07.083,Digit Span Task,2021.2.3,Linux x86_64,60.08893162,10646,1,0.04290692,-0.384964307,1,0,0,cont_button,0,1,1,1,1,5,10646,,,,,,
,,,,,,0,0,0,0,1,0,001,2022-05-03_11h36.07.083,Digit Span Task,2021.2.3,Linux x86_64,60.08893162,,,,,,,,,,,,,,,,,,,,,
,,,,,,1,0,1,0,1,0,001,2022-05-03_11h36.07.083,Digit Span Task,2021.2.3,Linux x86_64,60.08893162,,,,,,,,,,,,,,,,,,,,,
,,,,,,2,0,2,0,1,0,001,2022-05-03_11h36.07.083,Digit Span Task,2021.2.3,Linux x86_64,60.08893162,,,,,,,,,,,,,,,,,,,,,
,,,,,,3,0,3,0,1,0,001,2022-05-03_11h36.07.083,Digit Span Task,2021.2.3,Linux x86_64,60.08893162,,,,,,,,,,,,,,,,,,,,,
,,,,,,4,0,4,0,1,0,001,2022-05-03_11h36.07.083,Digit Span Task,2021.2.3,Linux x86_64,60.08893162,,,,,,,,,,,,,,,,,,,,,
,,,,,,,,,,,0,001,2022-05-03_11h36.07.083,Digit Span Task,2021.2.3,Linux x86_64,60.08893162,74832,1,0.001579603,-0.375157595,1,0,0,cont_button,0,2,2,2,1,5,74832,,,,,,
,,,,,,,,,,,0,001,2022-05-03_11h36.07.083,Digit Span Task,2021.2.3,Linux x86_64,60.08893162,,,,,,,,,,,,,,,,1,2,12,2,1,five.xlsx
,,,,,,0,0,0,0,1,0,001,2022-05-03_11h36.07.083,Digit Span Task,2021.2.3,Linux x86_64,60.08893162,,,,,,,,,,,,,,,,,,,,,
,,,,,,1,0,1,0,1,0,001,2022-05-03_11h36.07.083,Digit Span Task,2021.2.3,Linux x86_64,60.08893162,,,,,,,,,,,,,,,,,,,,,
,,,,,,2,0,2,0,1,0,001,2022-05-03_11h36.07.083,Digit Span Task,2021.2.3,Linux x86_64,60.08893162,,,,,,,,,,,,,,,,,,,,,
,,,,,,3,0,3,0,1,0,001,2022-05-03_11h36.07.083,Digit Span Task,2021.2.3,Linux x86_64,60.08893162,,,,,,,,,,,,,,,,,,,,,
,,,,,,4,0,4,0,1,0,001,2022-05-03_11h36.07.083,Digit Span Task,2021.2.3,Linux x86_64,60.08893162,,,,,,,,,,,,,,,,,,,,,
,,,,,,5,0,5,0,1,0,001,2022-05-03_11h36.07.083,Digit Span Task,2021.2.3,Linux x86_64,60.08893162,,,,,,,,,,,,,,,,,,,,,
