start_mouse.x,start_mouse.y,start_mouse.leftButton,start_mouse.midButton,start_mouse.rightButton,start_mouse.clicked_name,digitLoop.thisRepN,digitLoop.thisTrialN,digitLoop.thisN,digitLoop.thisIndex,digitLoop.ran,participant,session,date,expName,psychopyVersion,OS,frameRate,textbox.text,correct,mouse.x,mouse.y,mouse.leftButton,mouse.midButton,mouse.rightButton,mouse.clicked_name,trials.thisRepN,trials.thisTrialN,trials.thisN,trials.thisIndex,trials.ran,digitSpan,digits,blocks.thisRepN,blocks.thisTrialN,blocks.thisN,blocks.thisIndex,blocks.ran,condition_file
0.052160184,-0.397457282,1,0,0,cont_button,0,0,0,0,1,0,001,2022-04-26_10h33.33.362,Digit Span Task,2021.2.3,Linux x86_64,60.08171113,,,,,,,,,,,,,,,,,,,,,
,,,,,,1,0,1,0,1,0,001,2022-04-26_10h33.33.362,Digit Span Task,2021.2.3,Linux x86_64,60.08171113,,,,,,,,,,,,,,,,,,,,,
,,,,,,2,0,2,0,1,0,001,2022-04-26_10h33.33.362,Digit Span Task,2021.2.3,Linux x86_64,60.08171113,,,,,,,,,,,,,,,,,,,,,
,,,,,,,,,,,0,001,2022-04-26_10h33.33.362,Digit Span Task,2021.2.3,Linux x86_64,60.08171113,+7,0,-0.034251372,-0.394278685,1,0,0,cont_button,0,0,0,0,1,3,217,,,,,,
,,,,,,0,0,0,0,1,0,001,2022-04-26_10h33.33.362,Digit Span Task,2021.2.3,Linux x86_64,60.08171113,,,,,,,,,,,,,,,,,,,,,
,,,,,,1,0,1,0,1,0,001,2022-04-26_10h33.33.362,Digit Span Task,2021.2.3,Linux x86_64,60.08171113,,,,,,,,,,,,,,,,,,,,,
,,,,,,2,0,2,0,1,0,001,2022-04-26_10h33.33.362,Digit Span Task,2021.2.3,Linux x86_64,60.08171113,,,,,,,,,,,,,,,,,,,,,
,,,,,,,,,,,0,001,2022-04-26_10h33.33.362,Digit Span Task,2021.2.3,Linux x86_64,60.08171113,+4+8+6,0,0.05328091,-0.387981653,1,0,0,cont_button,0,1,1,1,1,3,486,,,,,,
,,,,,,0,0,0,0,1,0,001,2022-04-26_10h33.33.362,Digit Span Task,2021.2.3,Linux x86_64,60.08171113,,,,,,,,,,,,,,,,,,,,,
,,,,,,1,0,1,0,1,0,001,2022-04-26_10h33.33.362,Digit Span Task,2021.2.3,Linux x86_64,60.08171113,,,,,,,,,,,,,,,,,,,,,
,,,,,,2,0,2,0,1,0,001,2022-04-26_10h33.33.362,Digit Span Task,2021.2.3,Linux x86_64,60.08171113,,,,,,,,,,,,,,,,,,,,,
,,,,,,,,,,,0,001,2022-04-26_10h33.33.362,Digit Span Task,2021.2.3,Linux x86_64,60.08171113,760,1,-0.017982721,-0.397475084,1,0,0,cont_button,0,2,2,2,1,3,760,,,,,,
,,,,,,,,,,,0,001,2022-04-26_10h33.33.362,Digit Span Task,2021.2.3,Linux x86_64,60.08171113,,,,,,,,,,,,,,,,0,0,0,0,1,three.xlsx
,,,,,,0,0,0,0,1,0,001,2022-04-26_10h33.33.362,Digit Span Task,2021.2.3,Linux x86_64,60.08171113,,,,,,,,,,,,,,,,,,,,,
,,,,,,1,0,1,0,1,0,001,2022-04-26_10h33.33.362,Digit Span Task,2021.2.3,Linux x86_64,60.08171113,,,,,,,,,,,,,,,,,,,,,
,,,,,,2,0,2,0,1,0,001,2022-04-26_10h33.33.362,Digit Span Task,2021.2.3,Linux x86_64,60.08171113,,,,,,,,,,,,,,,,,,,,,
,,,,,,3,0,3,0,1,0,001,2022-04-26_10h33.33.362,Digit Span Task,2021.2.3,Linux x86_64,60.08171113,,,,,,,,,,,,,,,,,,,,,
,,,,,,,,,,,0,001,2022-04-26_10h33.33.362,Digit Span Task,2021.2.3,Linux x86_64,60.08171113,34141,0,-0.037602584,-0.399730682,1,0,0,cont_button,0,0,0,0,1,4,3141,,,,,,
,,,,,,0,0,0,0,1,0,001,2022-04-26_10h33.33.362,Digit Span Task,2021.2.3,Linux x86_64,60.08171113,,,,,,,,,,,,,,,,,,,,,
,,,,,,1,0,1,0,1,0,001,2022-04-26_10h33.33.362,Digit Span Task,2021.2.3,Linux x86_64,60.08171113,,,,,,,,,,,,,,,,,,,,,
,,,,,,2,0,2,0,1,0,001,2022-04-26_10h33.33.362,Digit Span Task,2021.2.3,Linux x86_64,60.08171113,,,,,,,,,,,,,,,,,,,,,
,,,,,,3,0,3,0,1,0,001,2022-04-26_10h33.33.362,Digit Span Task,2021.2.3,Linux x86_64,60.08171113,,,,,,,,,,,,,,,,,,,,,
,,,,,,,,,,,0,001,2022-04-26_10h33.33.362,Digit Span Task,2021.2.3,Linux x86_64,60.08171113,6351,1,-0.00567778,-0.406651338,1,0,0,cont_button,0,1,1,1,1,4,6351,,,,,,
,,,,,,0,0,0,0,1,0,001,2022-04-26_10h33.33.362,Digit Span Task,2021.2.3,Linux x86_64,60.08171113,,,,,,,,,,,,,,,,,,,,,
,,,,,,1,0,1,0,1,0,001,2022-04-26_10h33.33.362,Digit Span Task,2021.2.3,Linux x86_64,60.08171113,,,,,,,,,,,,,,,,,,,,,
,,,,,,2,0,2,0,1,0,001,2022-04-26_10h33.33.362,Digit Span Task,2021.2.3,Linux x86_64,60.08171113,,,,,,,,,,,,,,,,,,,,,
,,,,,,3,0,3,0,1,0,001,2022-04-26_10h33.33.362,Digit Span Task,2021.2.3,Linux x86_64,60.08171113,,,,,,,,,,,,,,,,,,,,,
,,,,,,,,,,,0,001,2022-04-26_10h33.33.362,Digit Span Task,2021.2.3,Linux x86_64,60.08171113,2391,1,0.113919576,-0.40827028,1,0,0,cont_button,0,2,2,2,1,4,2391,,,,,,
,,,,,,,,,,,0,001,2022-04-26_10h33.33.362,Digit Span Task,2021.2.3,Linux x86_64,60.08171113,,,,,,,,,,,,,,,,0,1,1,1,1,four.xlsx
,,,,,,0,0,0,0,1,0,001,2022-04-26_10h33.33.362,Digit Span Task,2021.2.3,Linux x86_64,60.08171113,,,,,,,,,,,,,,,,,,,,,
,,,,,,1,0,1,0,1,0,001,2022-04-26_10h33.33.362,Digit Span Task,2021.2.3,Linux x86_64,60.08171113,,,,,,,,,,,,,,,,,,,,,
,,,,,,2,0,2,0,1,0,001,2022-04-26_10h33.33.362,Digit Span Task,2021.2.3,Linux x86_64,60.08171113,,,,,,,,,,,,,,,,,,,,,
,,,,,,3,0,3,0,1,0,001,2022-04-26_10h33.33.362,Digit Span Task,2021.2.3,Linux x86_64,60.08171113,,,,,,,,,,,,,,,,,,,,,
,,,,,,4,0,4,0,1,0,001,2022-04-26_10h33.33.362,Digit Span Task,2021.2.3,Linux x86_64,60.08171113,,,,,,,,,,,,,,,,,,,,,
,,,,,,,,,,,0,001,2022-04-26_10h33.33.362,Digit Span Task,2021.2.3,Linux x86_64,60.08171113,14932,1,0.083799601,-0.423593283,1,0,0,cont_button,0,0,0,0,1,5,14932,,,,,,
,,,,,,0,0,0,0,1,0,001,2022-04-26_10h33.33.362,Digit Span Task,2021.2.3,Linux x86_64,60.08171113,,,,,,,,,,,,,,,,,,,,,
,,,,,,1,0,1,0,1,0,001,2022-04-26_10h33.33.362,Digit Span Task,2021.2.3,Linux x86_64,60.08171113,,,,,,,,,,,,,,,,,,,,,
,,,,,,2,0,2,0,1,0,001,2022-04-26_10h33.33.362,Digit Span Task,2021.2.3,Linux x86_64,60.08171113,,,,,,,,,,,,,,,,,,,,,
,,,,,,3,0,3,0,1,0,001,2022-04-26_10h33.33.362,Digit Span Task,2021.2.3,Linux x86_64,60.08171113,,,,,,,,,,,,,,,,,,,,,
,,,,,,4,0,4,0,1,0,001,2022-04-26_10h33.33.362,Digit Span Task,2021.2.3,Linux x86_64,60.08171113,,,,,,,,,,,,,,,,,,,,,
,,,,,,,,,,,0,001,2022-04-26_10h33.33.362,Digit Span Task,2021.2.3,Linux x86_64,60.08171113,10646,1,0.058120966,-0.387420495,1,0,0,cont_button,0,1,1,1,1,5,10646,,,,,,
,,,,,,0,0,0,0,1,0,001,2022-04-26_10h33.33.362,Digit Span Task,2021.2.3,Linux x86_64,60.08171113,,,,,,,,,,,,,,,,,,,,,
,,,,,,1,0,1,0,1,0,001,2022-04-26_10h33.33.362,Digit Span Task,2021.2.3,Linux x86_64,60.08171113,,,,,,,,,,,,,,,,,,,,,
,,,,,,2,0,2,0,1,0,001,2022-04-26_10h33.33.362,Digit Span Task,2021.2.3,Linux x86_64,60.08171113,,,,,,,,,,,,,,,,,,,,,
,,,,,,3,0,3,0,1,0,001,2022-04-26_10h33.33.362,Digit Span Task,2021.2.3,Linux x86_64,60.08171113,,,,,,,,,,,,,,,,,,,,,
,,,,,,4,0,4,0,1,0,001,2022-04-26_10h33.33.362,Digit Span Task,2021.2.3,Linux x86_64,60.08171113,,,,,,,,,,,,,,,,,,,,,
,,,,,,,,,,,0,001,2022-04-26_10h33.33.362,Digit Span Task,2021.2.3,Linux x86_64,60.08171113,74832,1,0.024753571,-0.401319583,1,0,0,cont_button,0,2,2,2,1,5,74832,,,,,,
,,,,,,,,,,,0,001,2022-04-26_10h33.33.362,Digit Span Task,2021.2.3,Linux x86_64,60.08171113,,,,,,,,,,,,,,,,0,2,2,2,1,five.xlsx
,,,,,,0,0,0,0,1,0,001,2022-04-26_10h33.33.362,Digit Span Task,2021.2.3,Linux x86_64,60.08171113,,,,,,,,,,,,,,,,,,,,,
,,,,,,1,0,1,0,1,0,001,2022-04-26_10h33.33.362,Digit Span Task,2021.2.3,Linux x86_64,60.08171113,,,,,,,,,,,,,,,,,,,,,
,,,,,,2,0,2,0,1,0,001,2022-04-26_10h33.33.362,Digit Span Task,2021.2.3,Linux x86_64,60.08171113,,,,,,,,,,,,,,,,,,,,,
,,,,,,3,0,3,0,1,0,001,2022-04-26_10h33.33.362,Digit Span Task,2021.2.3,Linux x86_64,60.08171113,,,,,,,,,,,,,,,,,,,,,
,,,,,,4,0,4,0,1,0,001,2022-04-26_10h33.33.362,Digit Span Task,2021.2.3,Linux x86_64,60.08171113,,,,,,,,,,,,,,,,,,,,,
,,,,,,5,0,5,0,1,0,001,2022-04-26_10h33.33.362,Digit Span Task,2021.2.3,Linux x86_64,60.08171113,,,,,,,,,,,,,,,,,,,,,
,,,,,,,,,,,0,001,2022-04-26_10h33.33.362,Digit Span Task,2021.2.3,Linux x86_64,60.08171113,934864,0,-0.052632252,-0.401925008,1,0,0,cont_button,0,0,0,0,1,6,934648,,,,,,
,,,,,,0,0,0,0,1,0,001,2022-04-26_10h33.33.362,Digit Span Task,2021.2.3,Linux x86_64,60.08171113,,,,,,,,,,,,,,,,,,,,,
,,,,,,1,0,1,0,1,0,001,2022-04-26_10h33.33.362,Digit Span Task,2021.2.3,Linux x86_64,60.08171113,,,,,,,,,,,,,,,,,,,,,
,,,,,,2,0,2,0,1,0,001,2022-04-26_10h33.33.362,Digit Span Task,2021.2.3,Linux x86_64,60.08171113,,,,,,,,,,,,,,,,,,,,,
,,,,,,3,0,3,0,1,0,001,2022-04-26_10h33.33.362,Digit Span Task,2021.2.3,Linux x86_64,60.08171113,,,,,,,,,,,,,,,,,,,,,
,,,,,,4,0,4,0,1,0,001,2022-04-26_10h33.33.362,Digit Span Task,2021.2.3,Linux x86_64,60.08171113,,,,,,,,,,,,,,,,,,,,,
,,,,,,5,0,5,0,1,0,001,2022-04-26_10h33.33.362,Digit Span Task,2021.2.3,Linux x86_64,60.08171113,,,,,,,,,,,,,,,,,,,,,
,,,,,,,,,,,0,001,2022-04-26_10h33.33.362,Digit Span Task,2021.2.3,Linux x86_64,60.08171113,179390,1,-0.001244545,-0.383610964,1,0,0,cont_button,0,1,1,1,1,6,179390,,,,,,
,,,,,,0,0,0,0,1,0,001,2022-04-26_10h33.33.362,Digit Span Task,2021.2.3,Linux x86_64,60.08171113,,,,,,,,,,,,,,,,,,,,,
,,,,,,1,0,1,0,1,0,001,2022-04-26_10h33.33.362,Digit Span Task,2021.2.3,Linux x86_64,60.08171113,,,,,,,,,,,,,,,,,,,,,
,,,,,,2,0,2,0,1,0,001,2022-04-26_10h33.33.362,Digit Span Task,2021.2.3,Linux x86_64,60.08171113,,,,,,,,,,,,,,,,,,,,,
,,,,,,3,0,3,0,1,0,001,2022-04-26_10h33.33.362,Digit Span Task,2021.2.3,Linux x86_64,60.08171113,,,,,,,,,,,,,,,,,,,,,
,,,,,,4,0,4,0,1,0,001,2022-04-26_10h33.33.362,Digit Span Task,2021.2.3,Linux x86_64,60.08171113,,,,,,,,,,,,,,,,,,,,,
,,,,,,5,0,5,0,1,0,001,2022-04-26_10h33.33.362,Digit Span Task,2021.2.3,Linux x86_64,60.08171113,,,,,,,,,,,,,,,,,,,,,
,,,,,,,,,,,0,001,2022-04-26_10h33.33.362,Digit Span Task,2021.2.3,Linux x86_64,60.08171113,420288,0,0.003769716,-0.390716235,1,0,0,cont_button,0,2,2,2,1,6,408288,,,,,,
,,,,,,,,,,,0,001,2022-04-26_10h33.33.362,Digit Span Task,2021.2.3,Linux x86_64,60.08171113,,,,,,,,,,,,,,,,0,3,3,3,1,six.xlsx
,,,,,,0,0,0,0,1,0,001,2022-04-26_10h33.33.362,Digit Span Task,2021.2.3,Linux x86_64,60.08171113,,,,,,,,,,,,,,,,,,,,,
,,,,,,1,0,1,0,1,0,001,2022-04-26_10h33.33.362,Digit Span Task,2021.2.3,Linux x86_64,60.08171113,,,,,,,,,,,,,,,,,,,,,
,,,,,,2,0,2,0,1,0,001,2022-04-26_10h33.33.362,Digit Span Task,2021.2.3,Linux x86_64,60.08171113,,,,,,,,,,,,,,,,,,,,,
,,,,,,3,0,3,0,1,0,001,2022-04-26_10h33.33.362,Digit Span Task,2021.2.3,Linux x86_64,60.08171113,,,,,,,,,,,,,,,,,,,,,
,,,,,,4,0,4,0,1,0,001,2022-04-26_10h33.33.362,Digit Span Task,2021.2.3,Linux x86_64,60.08171113,,,,,,,,,,,,,,,,,,,,,
,,,,,,5,0,5,0,1,0,001,2022-04-26_10h33.33.362,Digit Span Task,2021.2.3,Linux x86_64,60.08171113,,,,,,,,,,,,,,,,,,,,,
,,,,,,6,0,6,0,1,0,001,2022-04-26_10h33.33.362,Digit Span Task,2021.2.3,Linux x86_64,60.08171113,,,,,,,,,,,,,,,,,,,,,
,,,,,,,,,,,0,001,2022-04-26_10h33.33.362,Digit Span Task,2021.2.3,Linux x86_64,60.08171113,489,0,-0.024614731,-0.392571449,1,0,0,cont_button,0,0,0,0,1,7,4498237,,,,,,
,,,,,,0,0,0,0,1,0,001,2022-04-26_10h33.33.362,Digit Span Task,2021.2.3,Linux x86_64,60.08171113,,,,,,,,,,,,,,,,,,,,,
,,,,,,1,0,1,0,1,0,001,2022-04-26_10h33.33.362,Digit Span Task,2021.2.3,Linux x86_64,60.08171113,,,,,,,,,,,,,,,,,,,,,
,,,,,,2,0,2,0,1,0,001,2022-04-26_10h33.33.362,Digit Span Task,2021.2.3,Linux x86_64,60.08171113,,,,,,,,,,,,,,,,,,,,,
,,,,,,3,0,3,0,1,0,001,2022-04-26_10h33.33.362,Digit Span Task,2021.2.3,Linux x86_64,60.08171113,,,,,,,,,,,,,,,,,,,,,
,,,,,,4,0,4,0,1,0,001,2022-04-26_10h33.33.362,Digit Span Task,2021.2.3,Linux x86_64,60.08171113,,,,,,,,,,,,,,,,,,,,,
,,,,,,5,0,5,0,1,0,001,2022-04-26_10h33.33.362,Digit Span Task,2021.2.3,Linux x86_64,60.08171113,,,,,,,,,,,,,,,,,,,,,
,,,,,,6,0,6,0,1,0,001,2022-04-26_10h33.33.362,Digit Span Task,2021.2.3,Linux x86_64,60.08171113,,,,,,,,,,,,,,,,,,,,,
,,,,,,,,,,,0,001,2022-04-26_10h33.33.362,Digit Span Task,2021.2.3,Linux x86_64,60.08171113,453437,0,-0.001351913,-0.372469425,1,0,0,cont_button,0,1,1,1,1,7,2544371,,,,,,
,,,,,,0,0,0,0,1,0,001,2022-04-26_10h33.33.362,Digit Span Task,2021.2.3,Linux x86_64,60.08171113,,,,,,,,,,,,,,,,,,,,,
,,,,,,1,0,1,0,1,0,001,2022-04-26_10h33.33.362,Digit Span Task,2021.2.3,Linux x86_64,60.08171113,,,,,,,,,,,,,,,,,,,,,
,,,,,,2,0,2,0,1,0,001,2022-04-26_10h33.33.362,Digit Span Task,2021.2.3,Linux x86_64,60.08171113,,,,,,,,,,,,,,,,,,,,,
,,,,,,3,0,3,0,1,0,001,2022-04-26_10h33.33.362,Digit Span Task,2021.2.3,Linux x86_64,60.08171113,,,,,,,,,,,,,,,,,,,,,
,,,,,,4,0,4,0,1,0,001,2022-04-26_10h33.33.362,Digit Span Task,2021.2.3,Linux x86_64,60.08171113,,,,,,,,,,,,,,,,,,,,,
,,,,,,5,0,5,0,1,0,001,2022-04-26_10h33.33.362,Digit Span Task,2021.2.3,Linux x86_64,60.08171113,,,,,,,,,,,,,,,,,,,,,
,,,,,,6,0,6,0,1,0,001,2022-04-26_10h33.33.362,Digit Span Task,2021.2.3,Linux x86_64,60.08171113,,,,,,,,,,,,,,,,,,,,,
,,,,,,,,,,,0,001,2022-04-26_10h33.33.362,Digit Span Task,2021.2.3,Linux x86_64,60.08171113,8875480,0,-0.06429553,-0.419649442,1,0,0,cont_button,0,2,2,2,1,7,8875085,,,,,,
,,,,,,,,,,,0,001,2022-04-26_10h33.33.362,Digit Span Task,2021.2.3,Linux x86_64,60.08171113,,,,,,,,,,,,,,,,0,4,4,4,1,seven.xlsx
,,,,,,0,0,0,0,1,0,001,2022-04-26_10h33.33.362,Digit Span Task,2021.2.3,Linux x86_64,60.08171113,,,,,,,,,,,,,,,,,,,,,
,,,,,,1,0,1,0,1,0,001,2022-04-26_10h33.33.362,Digit Span Task,2021.2.3,Linux x86_64,60.08171113,,,,,,,,,,,,,,,,,,,,,
,,,,,,2,0,2,0,1,0,001,2022-04-26_10h33.33.362,Digit Span Task,2021.2.3,Linux x86_64,60.08171113,,,,,,,,,,,,,,,,,,,,,
,,,,,,3,0,3,0,1,0,001,2022-04-26_10h33.33.362,Digit Span Task,2021.2.3,Linux x86_64,60.08171113,,,,,,,,,,,,,,,,,,,,,
,,,,,,4,0,4,0,1,0,001,2022-04-26_10h33.33.362,Digit Span Task,2021.2.3,Linux x86_64,60.08171113,,,,,,,,,,,,,,,,,,,,,
,,,,,,5,0,5,0,1,0,001,2022-04-26_10h33.33.362,Digit Span Task,2021.2.3,Linux x86_64,60.08171113,,,,,,,,,,,,,,,,,,,,,
,,,,,,6,0,6,0,1,0,001,2022-04-26_10h33.33.362,Digit Span Task,2021.2.3,Linux x86_64,60.08171113,,,,,,,,,,,,,,,,,,,,,
,,,,,,7,0,7,0,1,0,001,2022-04-26_10h33.33.362,Digit Span Task,2021.2.3,Linux x86_64,60.08171113,,,,,,,,,,,,,,,,,,,,,
,,,,,,,,,,,0,001,2022-04-26_10h33.33.362,Digit Span Task,2021.2.3,Linux x86_64,60.08171113,24962408,0,0.025794903,-0.417916695,1,0,0,cont_button,0,0,0,0,1,8,46229408,,,,,,
,,,,,,0,0,0,0,1,0,001,2022-04-26_10h33.33.362,Digit Span Task,2021.2.3,Linux x86_64,60.08171113,,,,,,,,,,,,,,,,,,,,,
,,,,,,1,0,1,0,1,0,001,2022-04-26_10h33.33.362,Digit Span Task,2021.2.3,Linux x86_64,60.08171113,,,,,,,,,,,,,,,,,,,,,
,,,,,,2,0,2,0,1,0,001,2022-04-26_10h33.33.362,Digit Span Task,2021.2.3,Linux x86_64,60.08171113,,,,,,,,,,,,,,,,,,,,,
,,,,,,3,0,3,0,1,0,001,2022-04-26_10h33.33.362,Digit Span Task,2021.2.3,Linux x86_64,60.08171113,,,,,,,,,,,,,,,,,,,,,
,,,,,,4,0,4,0,1,0,001,2022-04-26_10h33.33.362,Digit Span Task,2021.2.3,Linux x86_64,60.08171113,,,,,,,,,,,,,,,,,,,,,
,,,,,,5,0,5,0,1,0,001,2022-04-26_10h33.33.362,Digit Span Task,2021.2.3,Linux x86_64,60.08171113,,,,,,,,,,,,,,,,,,,,,
,,,,,,6,0,6,0,1,0,001,2022-04-26_10h33.33.362,Digit Span Task,2021.2.3,Linux x86_64,60.08171113,,,,,,,,,,,,,,,,,,,,,
,,,,,,7,0,7,0,1,0,001,2022-04-26_10h33.33.362,Digit Span Task,2021.2.3,Linux x86_64,60.08171113,,,,,,,,,,,,,,,,,,,,,
,,,,,,,,,,,0,001,2022-04-26_10h33.33.362,Digit Span Task,2021.2.3,Linux x86_64,60.08171113,7698,0,-0.013514519,-0.411208073,1,0,0,cont_button,0,1,1,1,1,8,70967882,,,,,,
,,,,,,0,0,0,0,1,0,001,2022-04-26_10h33.33.362,Digit Span Task,2021.2.3,Linux x86_64,60.08171113,,,,,,,,,,,,,,,,,,,,,
,,,,,,1,0,1,0,1,0,001,2022-04-26_10h33.33.362,Digit Span Task,2021.2.3,Linux x86_64,60.08171113,,,,,,,,,,,,,,,,,,,,,
,,,,,,2,0,2,0,1,0,001,2022-04-26_10h33.33.362,Digit Span Task,2021.2.3,Linux x86_64,60.08171113,,,,,,,,,,,,,,,,,,,,,
,,,,,,3,0,3,0,1,0,001,2022-04-26_10h33.33.362,Digit Span Task,2021.2.3,Linux x86_64,60.08171113,,,,,,,,,,,,,,,,,,,,,
,,,,,,4,0,4,0,1,0,001,2022-04-26_10h33.33.362,Digit Span Task,2021.2.3,Linux x86_64,60.08171113,,,,,,,,,,,,,,,,,,,,,
,,,,,,5,0,5,0,1,0,001,2022-04-26_10h33.33.362,Digit Span Task,2021.2.3,Linux x86_64,60.08171113,,,,,,,,,,,,,,,,,,,,,
,,,,,,6,0,6,0,1,0,001,2022-04-26_10h33.33.362,Digit Span Task,2021.2.3,Linux x86_64,60.08171113,,,,,,,,,,,,,,,,,,,,,
,,,,,,7,0,7,0,1,0,001,2022-04-26_10h33.33.362,Digit Span Task,2021.2.3,Linux x86_64,60.08171113,,,,,,,,,,,,,,,,,,,,,
,,,,,,,,,,,0,001,2022-04-26_10h33.33.362,Digit Span Task,2021.2.3,Linux x86_64,60.08171113,27139807,0,-0.010318359,-0.408992847,1,0,0,cont_button,0,2,2,2,1,8,27139320,,,,,,
,,,,,,,,,,,0,001,2022-04-26_10h33.33.362,Digit Span Task,2021.2.3,Linux x86_64,60.08171113,,,,,,,,,,,,,,,,0,5,5,5,1,eight.xlsx
,,,,,,0,0,0,0,1,0,001,2022-04-26_10h33.33.362,Digit Span Task,2021.2.3,Linux x86_64,60.08171113,,,,,,,,,,,,,,,,,,,,,
,,,,,,1,0,1,0,1,0,001,2022-04-26_10h33.33.362,Digit Span Task,2021.2.3,Linux x86_64,60.08171113,,,,,,,,,,,,,,,,,,,,,
,,,,,,2,0,2,0,1,0,001,2022-04-26_10h33.33.362,Digit Span Task,2021.2.3,Linux x86_64,60.08171113,,,,,,,,,,,,,,,,,,,,,
,,,,,,3,0,3,0,1,0,001,2022-04-26_10h33.33.362,Digit Span Task,2021.2.3,Linux x86_64,60.08171113,,,,,,,,,,,,,,,,,,,,,
,,,,,,4,0,4,0,1,0,001,2022-04-26_10h33.33.362,Digit Span Task,2021.2.3,Linux x86_64,60.08171113,,,,,,,,,,,,,,,,,,,,,
,,,,,,5,0,5,0,1,0,001,2022-04-26_10h33.33.362,Digit Span Task,2021.2.3,Linux x86_64,60.08171113,,,,,,,,,,,,,,,,,,,,,
,,,,,,6,0,6,0,1,0,001,2022-04-26_10h33.33.362,Digit Span Task,2021.2.3,Linux x86_64,60.08171113,,,,,,,,,,,,,,,,,,,,,
,,,,,,7,0,7,0,1,0,001,2022-04-26_10h33.33.362,Digit Span Task,2021.2.3,Linux x86_64,60.08171113,,,,,,,,,,,,,,,,,,,,,
,,,,,,8,0,8,0,1,0,001,2022-04-26_10h33.33.362,Digit Span Task,2021.2.3,Linux x86_64,60.08171113,,,,,,,,,,,,,,,,,,,,,
,,,,,,,,,,,0,001,2022-04-26_10h33.33.362,Digit Span Task,2021.2.3,Linux x86_64,60.08171113,367386,0,-0.028458277,-0.371724923,1,0,0,cont_button,0,0,0,0,1,9,368373442,,,,,,
,,,,,,0,0,0,0,1,0,001,2022-04-26_10h33.33.362,Digit Span Task,2021.2.3,Linux x86_64,60.08171113,,,,,,,,,,,,,,,,,,,,,
,,,,,,1,0,1,0,1,0,001,2022-04-26_10h33.33.362,Digit Span Task,2021.2.3,Linux x86_64,60.08171113,,,,,,,,,,,,,,,,,,,,,
,,,,,,2,0,2,0,1,0,001,2022-04-26_10h33.33.362,Digit Span Task,2021.2.3,Linux x86_64,60.08171113,,,,,,,,,,,,,,,,,,,,,
,,,,,,3,0,3,0,1,0,001,2022-04-26_10h33.33.362,Digit Span Task,2021.2.3,Linux x86_64,60.08171113,,,,,,,,,,,,,,,,,,,,,
,,,,,,4,0,4,0,1,0,001,2022-04-26_10h33.33.362,Digit Span Task,2021.2.3,Linux x86_64,60.08171113,,,,,,,,,,,,,,,,,,,,,
,,,,,,5,0,5,0,1,0,001,2022-04-26_10h33.33.362,Digit Span Task,2021.2.3,Linux x86_64,60.08171113,,,,,,,,,,,,,,,,,,,,,
,,,,,,6,0,6,0,1,0,001,2022-04-26_10h33.33.362,Digit Span Task,2021.2.3,Linux x86_64,60.08171113,,,,,,,,,,,,,,,,,,,,,
,,,,,,7,0,7,0,1,0,001,2022-04-26_10h33.33.362,Digit Span Task,2021.2.3,Linux x86_64,60.08171113,,,,,,,,,,,,,,,,,,,,,
,,,,,,8,0,8,0,1,0,001,2022-04-26_10h33.33.362,Digit Span Task,2021.2.3,Linux x86_64,60.08171113,,,,,,,,,,,,,,,,,,,,,
,,,,,,,,,,,0,001,2022-04-26_10h33.33.362,Digit Span Task,2021.2.3,Linux x86_64,60.08171113,657296,0,-0.036390066,-0.399837414,1,0,0,cont_button,0,1,1,1,1,9,576270919,,,,,,
,,,,,,0,0,0,0,1,0,001,2022-04-26_10h33.33.362,Digit Span Task,2021.2.3,Linux x86_64,60.08171113,,,,,,,,,,,,,,,,,,,,,
,,,,,,1,0,1,0,1,0,001,2022-04-26_10h33.33.362,Digit Span Task,2021.2.3,Linux x86_64,60.08171113,,,,,,,,,,,,,,,,,,,,,
,,,,,,2,0,2,0,1,0,001,2022-04-26_10h33.33.362,Digit Span Task,2021.2.3,Linux x86_64,60.08171113,,,,,,,,,,,,,,,,,,,,,
,,,,,,3,0,3,0,1,0,001,2022-04-26_10h33.33.362,Digit Span Task,2021.2.3,Linux x86_64,60.08171113,,,,,,,,,,,,,,,,,,,,,
,,,,,,4,0,4,0,1,0,001,2022-04-26_10h33.33.362,Digit Span Task,2021.2.3,Linux x86_64,60.08171113,,,,,,,,,,,,,,,,,,,,,
,,,,,,5,0,5,0,1,0,001,2022-04-26_10h33.33.362,Digit Span Task,2021.2.3,Linux x86_64,60.08171113,,,,,,,,,,,,,,,,,,,,,
,,,,,,6,0,6,0,1,0,001,2022-04-26_10h33.33.362,Digit Span Task,2021.2.3,Linux x86_64,60.08171113,,,,,,,,,,,,,,,,,,,,,
,,,,,,7,0,7,0,1,0,001,2022-04-26_10h33.33.362,Digit Span Task,2021.2.3,Linux x86_64,60.08171113,,,,,,,,,,,,,,,,,,,,,
,,,,,,8,0,8,0,1,0,001,2022-04-26_10h33.33.362,Digit Span Task,2021.2.3,Linux x86_64,60.08171113,,,,,,,,,,,,,,,,,,,,,
,,,,,,,,,,,0,001,2022-04-26_10h33.33.362,Digit Span Task,2021.2.3,Linux x86_64,60.08171113,68857889,0,-0.000814279,-0.428823074,1,0,0,cont_button,0,2,2,2,1,9,688655957,,,,,,
,,,,,,,,,,,0,001,2022-04-26_10h33.33.362,Digit Span Task,2021.2.3,Linux x86_64,60.08171113,,,,,,,,,,,,,,,,0,6,6,6,1,nine.xlsx
,,,,,,0,0,0,0,1,0,001,2022-04-26_10h33.33.362,Digit Span Task,2021.2.3,Linux x86_64,60.08171113,,,,,,,,,,,,,,,,,,,,,
,,,,,,1,0,1,0,1,0,001,2022-04-26_10h33.33.362,Digit Span Task,2021.2.3,Linux x86_64,60.08171113,,,,,,,,,,,,,,,,,,,,,
,,,,,,2,0,2,0,1,0,001,2022-04-26_10h33.33.362,Digit Span Task,2021.2.3,Linux x86_64,60.08171113,,,,,,,,,,,,,,,,,,,,,
,,,,,,3,0,3,0,1,0,001,2022-04-26_10h33.33.362,Digit Span Task,2021.2.3,Linux x86_64,60.08171113,,,,,,,,,,,,,,,,,,,,,
,,,,,,4,0,4,0,1,0,001,2022-04-26_10h33.33.362,Digit Span Task,2021.2.3,Linux x86_64,60.08171113,,,,,,,,,,,,,,,,,,,,,
,,,,,,5,0,5,0,1,0,001,2022-04-26_10h33.33.362,Digit Span Task,2021.2.3,Linux x86_64,60.08171113,,,,,,,,,,,,,,,,,,,,,
,,,,,,6,0,6,0,1,0,001,2022-04-26_10h33.33.362,Digit Span Task,2021.2.3,Linux x86_64,60.08171113,,,,,,,,,,,,,,,,,,,,,
,,,,,,7,0,7,0,1,0,001,2022-04-26_10h33.33.362,Digit Span Task,2021.2.3,Linux x86_64,60.08171113,,,,,,,,,,,,,,,,,,,,,
,,,,,,8,0,8,0,1,0,001,2022-04-26_10h33.33.362,Digit Span Task,2021.2.3,Linux x86_64,60.08171113,,,,,,,,,,,,,,,,,,,,,
,,,,,,9,0,9,0,1,0,001,2022-04-26_10h33.33.362,Digit Span Task,2021.2.3,Linux x86_64,60.08171113,,,,,,,,,,,,,,,,,,,,,
,,,,,,,,,,,0,001,2022-04-26_10h33.33.362,Digit Span Task,2021.2.3,Linux x86_64,60.08171113,63980018,0,0.039500237,-0.407965501,1,0,0,cont_button,0,0,0,0,1,10,6432900801,,,,,,
,,,,,,0,0,0,0,1,0,001,2022-04-26_10h33.33.362,Digit Span Task,2021.2.3,Linux x86_64,60.08171113,,,,,,,,,,,,,,,,,,,,,
,,,,,,1,0,1,0,1,0,001,2022-04-26_10h33.33.362,Digit Span Task,2021.2.3,Linux x86_64,60.08171113,,,,,,,,,,,,,,,,,,,,,
,,,,,,2,0,2,0,1,0,001,2022-04-26_10h33.33.362,Digit Span Task,2021.2.3,Linux x86_64,60.08171113,,,,,,,,,,,,,,,,,,,,,
,,,,,,3,0,3,0,1,0,001,2022-04-26_10h33.33.362,Digit Span Task,2021.2.3,Linux x86_64,60.08171113,,,,,,,,,,,,,,,,,,,,,
,,,,,,4,0,4,0,1,0,001,2022-04-26_10h33.33.362,Digit Span Task,2021.2.3,Linux x86_64,60.08171113,,,,,,,,,,,,,,,,,,,,,
,,,,,,5,0,5,0,1,0,001,2022-04-26_10h33.33.362,Digit Span Task,2021.2.3,Linux x86_64,60.08171113,,,,,,,,,,,,,,,,,,,,,
,,,,,,6,0,6,0,1,0,001,2022-04-26_10h33.33.362,Digit Span Task,2021.2.3,Linux x86_64,60.08171113,,,,,,,,,,,,,,,,,,,,,
,,,,,,7,0,7,0,1,0,001,2022-04-26_10h33.33.362,Digit Span Task,2021.2.3,Linux x86_64,60.08171113,,,,,,,,,,,,,,,,,,,,,
,,,,,,8,0,8,0,1,0,001,2022-04-26_10h33.33.362,Digit Span Task,2021.2.3,Linux x86_64,60.08171113,,,,,,,,,,,,,,,,,,,,,
,,,,,,9,0,9,0,1,0,001,2022-04-26_10h33.33.362,Digit Span Task,2021.2.3,Linux x86_64,60.08171113,,,,,,,,,,,,,,,,,,,,,
,,,,,,,,,,,0,001,2022-04-26_10h33.33.362,Digit Span Task,2021.2.3,Linux x86_64,60.08171113,6728,0,-0.027469238,-0.396886031,1,0,0,cont_button,0,1,1,1,1,10,8467348927,,,,,,
,,,,,,0,0,0,0,1,0,001,2022-04-26_10h33.33.362,Digit Span Task,2021.2.3,Linux x86_64,60.08171113,,,,,,,,,,,,,,,,,,,,,
,,,,,,1,0,1,0,1,0,001,2022-04-26_10h33.33.362,Digit Span Task,2021.2.3,Linux x86_64,60.08171113,,,,,,,,,,,,,,,,,,,,,
,,,,,,2,0,2,0,1,0,001,2022-04-26_10h33.33.362,Digit Span Task,2021.2.3,Linux x86_64,60.08171113,,,,,,,,,,,,,,,,,,,,,
,,,,,,3,0,3,0,1,0,001,2022-04-26_10h33.33.362,Digit Span Task,2021.2.3,Linux x86_64,60.08171113,,,,,,,,,,,,,,,,,,,,,
,,,,,,4,0,4,0,1,0,001,2022-04-26_10h33.33.362,Digit Span Task,2021.2.3,Linux x86_64,60.08171113,,,,,,,,,,,,,,,,,,,,,
,,,,,,5,0,5,0,1,0,001,2022-04-26_10h33.33.362,Digit Span Task,2021.2.3,Linux x86_64,60.08171113,,,,,,,,,,,,,,,,,,,,,
,,,,,,6,0,6,0,1,0,001,2022-04-26_10h33.33.362,Digit Span Task,2021.2.3,Linux x86_64,60.08171113,,,,,,,,,,,,,,,,,,,,,
,,,,,,7,0,7,0,1,0,001,2022-04-26_10h33.33.362,Digit Span Task,2021.2.3,Linux x86_64,60.08171113,,,,,,,,,,,,,,,,,,,,,
,,,,,,8,0,8,0,1,0,001,2022-04-26_10h33.33.362,Digit Span Task,2021.2.3,Linux x86_64,60.08171113,,,,,,,,,,,,,,,,,,,,,
,,,,,,9,0,9,0,1,0,001,2022-04-26_10h33.33.362,Digit Span Task,2021.2.3,Linux x86_64,60.08171113,,,,,,,,,,,,,,,,,,,,,
,,,,,,,,,,,0,001,2022-04-26_10h33.33.362,Digit Span Task,2021.2.3,Linux x86_64,60.08171113,481498136,0,0.057872931,-0.416922013,1,0,0,cont_button,0,2,2,2,1,10,4184946413,,,,,,
,,,,,,,,,,,0,001,2022-04-26_10h33.33.362,Digit Span Task,2021.2.3,Linux x86_64,60.08171113,,,,,,,,,,,,,,,,0,7,7,7,1,ten.xlsx
,,,,,,0,0,0,0,1,0,001,2022-04-26_10h33.33.362,Digit Span Task,2021.2.3,Linux x86_64,60.08171113,,,,,,,,,,,,,,,,,,,,,
,,,,,,1,0,1,0,1,0,001,2022-04-26_10h33.33.362,Digit Span Task,2021.2.3,Linux x86_64,60.08171113,,,,,,,,,,,,,,,,,,,,,
,,,,,,2,0,2,0,1,0,001,2022-04-26_10h33.33.362,Digit Span Task,2021.2.3,Linux x86_64,60.08171113,,,,,,,,,,,,,,,,,,,,,
,,,,,,3,0,3,0,1,0,001,2022-04-26_10h33.33.362,Digit Span Task,2021.2.3,Linux x86_64,60.08171113,,,,,,,,,,,,,,,,,,,,,
,,,,,,4,0,4,0,1,0,001,2022-04-26_10h33.33.362,Digit Span Task,2021.2.3,Linux x86_64,60.08171113,,,,,,,,,,,,,,,,,,,,,
,,,,,,5,0,5,0,1,0,001,2022-04-26_10h33.33.362,Digit Span Task,2021.2.3,Linux x86_64,60.08171113,,,,,,,,,,,,,,,,,,,,,
,,,,,,6,0,6,0,1,0,001,2022-04-26_10h33.33.362,Digit Span Task,2021.2.3,Linux x86_64,60.08171113,,,,,,,,,,,,,,,,,,,,,
,,,,,,7,0,7,0,1,0,001,2022-04-26_10h33.33.362,Digit Span Task,2021.2.3,Linux x86_64,60.08171113,,,,,,,,,,,,,,,,,,,,,
,,,,,,8,0,8,0,1,0,001,2022-04-26_10h33.33.362,Digit Span Task,2021.2.3,Linux x86_64,60.08171113,,,,,,,,,,,,,,,,,,,,,
,,,,,,9,0,9,0,1,0,001,2022-04-26_10h33.33.362,Digit Span Task,2021.2.3,Linux x86_64,60.08171113,,,,,,,,,,,,,,,,,,,,,
,,,,,,10,0,10,0,1,0,001,2022-04-26_10h33.33.362,Digit Span Task,2021.2.3,Linux x86_64,60.08171113,,,,,,,,,,,,,,,,,,,,,
,,,,,,,,,,,0,001,2022-04-26_10h33.33.362,Digit Span Task,2021.2.3,Linux x86_64,60.08171113,7329018,0,0.031691233,-0.400779088,1,0,0,cont_button,0,0,0,0,1,11,73290740563,,,,,,
,,,,,,0,0,0,0,1,0,001,2022-04-26_10h33.33.362,Digit Span Task,2021.2.3,Linux x86_64,60.08171113,,,,,,,,,,,,,,,,,,,,,
,,,,,,1,0,1,0,1,0,001,2022-04-26_10h33.33.362,Digit Span Task,2021.2.3,Linux x86_64,60.08171113,,,,,,,,,,,,,,,,,,,,,
,,,,,,2,0,2,0,1,0,001,2022-04-26_10h33.33.362,Digit Span Task,2021.2.3,Linux x86_64,60.08171113,,,,,,,,,,,,,,,,,,,,,
,,,,,,3,0,3,0,1,0,001,2022-04-26_10h33.33.362,Digit Span Task,2021.2.3,Linux x86_64,60.08171113,,,,,,,,,,,,,,,,,,,,,
,,,,,,4,0,4,0,1,0,001,2022-04-26_10h33.33.362,Digit Span Task,2021.2.3,Linux x86_64,60.08171113,,,,,,,,,,,,,,,,,,,,,
,,,,,,5,0,5,0,1,0,001,2022-04-26_10h33.33.362,Digit Span Task,2021.2.3,Linux x86_64,60.08171113,,,,,,,,,,,,,,,,,,,,,
,,,,,,6,0,6,0,1,0,001,2022-04-26_10h33.33.362,Digit Span Task,2021.2.3,Linux x86_64,60.08171113,,,,,,,,,,,,,,,,,,,,,
,,,,,,7,0,7,0,1,0,001,2022-04-26_10h33.33.362,Digit Span Task,2021.2.3,Linux x86_64,60.08171113,,,,,,,,,,,,,,,,,,,,,
,,,,,,8,0,8,0,1,0,001,2022-04-26_10h33.33.362,Digit Span Task,2021.2.3,Linux x86_64,60.08171113,,,,,,,,,,,,,,,,,,,,,
,,,,,,9,0,9,0,1,0,001,2022-04-26_10h33.33.362,Digit Span Task,2021.2.3,Linux x86_64,60.08171113,,,,,,,,,,,,,,,,,,,,,
,,,,,,10,0,10,0,1,0,001,2022-04-26_10h33.33.362,Digit Span Task,2021.2.3,Linux x86_64,60.08171113,,,,,,,,,,,,,,,,,,,,,
,,,,,,,,,,,0,001,2022-04-26_10h33.33.362,Digit Span Task,2021.2.3,Linux x86_64,60.08171113,967340,0,-0.033949057,-0.419543664,1,0,0,cont_button,0,1,1,1,1,11,74948772224,,,,,,
,,,,,,0,0,0,0,1,0,001,2022-04-26_10h33.33.362,Digit Span Task,2021.2.3,Linux x86_64,60.08171113,,,,,,,,,,,,,,,,,,,,,
,,,,,,1,0,1,0,1,0,001,2022-04-26_10h33.33.362,Digit Span Task,2021.2.3,Linux x86_64,60.08171113,,,,,,,,,,,,,,,,,,,,,
,,,,,,2,0,2,0,1,0,001,2022-04-26_10h33.33.362,Digit Span Task,2021.2.3,Linux x86_64,60.08171113,,,,,,,,,,,,,,,,,,,,,
,,,,,,3,0,3,0,1,0,001,2022-04-26_10h33.33.362,Digit Span Task,2021.2.3,Linux x86_64,60.08171113,,,,,,,,,,,,,,,,,,,,,
,,,,,,4,0,4,0,1,0,001,2022-04-26_10h33.33.362,Digit Span Task,2021.2.3,Linux x86_64,60.08171113,,,,,,,,,,,,,,,,,,,,,
,,,,,,5,0,5,0,1,0,001,2022-04-26_10h33.33.362,Digit Span Task,2021.2.3,Linux x86_64,60.08171113,,,,,,,,,,,,,,,,,,,,,
,,,,,,6,0,6,0,1,0,001,2022-04-26_10h33.33.362,Digit Span Task,2021.2.3,Linux x86_64,60.08171113,,,,,,,,,,,,,,,,,,,,,
,,,,,,7,0,7,0,1,0,001,2022-04-26_10h33.33.362,Digit Span Task,2021.2.3,Linux x86_64,60.08171113,,,,,,,,,,,,,,,,,,,,,
,,,,,,8,0,8,0,1,0,001,2022-04-26_10h33.33.362,Digit Span Task,2021.2.3,Linux x86_64,60.08171113,,,,,,,,,,,,,,,,,,,,,
,,,,,,9,0,9,0,1,0,001,2022-04-26_10h33.33.362,Digit Span Task,2021.2.3,Linux x86_64,60.08171113,,,,,,,,,,,,,,,,,,,,,
,,,,,,10,0,10,0,1,0,001,2022-04-26_10h33.33.362,Digit Span Task,2021.2.3,Linux x86_64,60.08171113,,,,,,,,,,,,,,,,,,,,,
,,,,,,,,,,,0,001,2022-04-26_10h33.33.362,Digit Span Task,2021.2.3,Linux x86_64,60.08171113,9708462008,0,-0.032928149,-0.40329663,1,0,0,cont_button,0,2,2,2,1,11,97084622072,,,,,,
,,,,,,,,,,,0,001,2022-04-26_10h33.33.362,Digit Span Task,2021.2.3,Linux x86_64,60.08171113,,,,,,,,,,,,,,,,0,8,8,8,1,eleven.xlsx
,,,,,,0,0,0,0,1,0,001,2022-04-26_10h33.33.362,Digit Span Task,2021.2.3,Linux x86_64,60.08171113,,,,,,,,,,,,,,,,,,,,,
,,,,,,1,0,1,0,1,0,001,2022-04-26_10h33.33.362,Digit Span Task,2021.2.3,Linux x86_64,60.08171113,,,,,,,,,,,,,,,,,,,,,
,,,,,,2,0,2,0,1,0,001,2022-04-26_10h33.33.362,Digit Span Task,2021.2.3,Linux x86_64,60.08171113,,,,,,,,,,,,,,,,,,,,,
,,,,,,3,0,3,0,1,0,001,2022-04-26_10h33.33.362,Digit Span Task,2021.2.3,Linux x86_64,60.08171113,,,,,,,,,,,,,,,,,,,,,
,,,,,,4,0,4,0,1,0,001,2022-04-26_10h33.33.362,Digit Span Task,2021.2.3,Linux x86_64,60.08171113,,,,,,,,,,,,,,,,,,,,,
,,,,,,5,0,5,0,1,0,001,2022-04-26_10h33.33.362,Digit Span Task,2021.2.3,Linux x86_64,60.08171113,,,,,,,,,,,,,,,,,,,,,
,,,,,,6,0,6,0,1,0,001,2022-04-26_10h33.33.362,Digit Span Task,2021.2.3,Linux x86_64,60.08171113,,,,,,,,,,,,,,,,,,,,,
,,,,,,7,0,7,0,1,0,001,2022-04-26_10h33.33.362,Digit Span Task,2021.2.3,Linux x86_64,60.08171113,,,,,,,,,,,,,,,,,,,,,
,,,,,,8,0,8,0,1,0,001,2022-04-26_10h33.33.362,Digit Span Task,2021.2.3,Linux x86_64,60.08171113,,,,,,,,,,,,,,,,,,,,,
,,,,,,9,0,9,0,1,0,001,2022-04-26_10h33.33.362,Digit Span Task,2021.2.3,Linux x86_64,60.08171113,,,,,,,,,,,,,,,,,,,,,
,,,,,,10,0,10,0,1,0,001,2022-04-26_10h33.33.362,Digit Span Task,2021.2.3,Linux x86_64,60.08171113,,,,,,,,,,,,,,,,,,,,,
,,,,,,11,0,11,0,1,0,001,2022-04-26_10h33.33.362,Digit Span Task,2021.2.3,Linux x86_64,60.08171113,,,,,,,,,,,,,,,,,,,,,
,,,,,,,,,,,0,001,2022-04-26_10h33.33.362,Digit Span Task,2021.2.3,Linux x86_64,60.08171113,381495026,0,-0.063166857,-0.372253736,1,0,0,cont_button,0,0,0,0,1,12,6.81346E+11,,,,,,
,,,,,,0,0,0,0,1,0,001,2022-04-26_10h33.33.362,Digit Span Task,2021.2.3,Linux x86_64,60.08171113,,,,,,,,,,,,,,,,,,,,,
,,,,,,1,0,1,0,1,0,001,2022-04-26_10h33.33.362,Digit Span Task,2021.2.3,Linux x86_64,60.08171113,,,,,,,,,,,,,,,,,,,,,
,,,,,,2,0,2,0,1,0,001,2022-04-26_10h33.33.362,Digit Span Task,2021.2.3,Linux x86_64,60.08171113,,,,,,,,,,,,,,,,,,,,,
,,,,,,3,0,3,0,1,0,001,2022-04-26_10h33.33.362,Digit Span Task,2021.2.3,Linux x86_64,60.08171113,,,,,,,,,,,,,,,,,,,,,
,,,,,,4,0,4,0,1,0,001,2022-04-26_10h33.33.362,Digit Span Task,2021.2.3,Linux x86_64,60.08171113,,,,,,,,,,,,,,,,,,,,,
,,,,,,5,0,5,0,1,0,001,2022-04-26_10h33.33.362,Digit Span Task,2021.2.3,Linux x86_64,60.08171113,,,,,,,,,,,,,,,,,,,,,
,,,,,,6,0,6,0,1,0,001,2022-04-26_10h33.33.362,Digit Span Task,2021.2.3,Linux x86_64,60.08171113,,,,,,,,,,,,,,,,,,,,,
,,,,,,7,0,7,0,1,0,001,2022-04-26_10h33.33.362,Digit Span Task,2021.2.3,Linux x86_64,60.08171113,,,,,,,,,,,,,,,,,,,,,
,,,,,,8,0,8,0,1,0,001,2022-04-26_10h33.33.362,Digit Span Task,2021.2.3,Linux x86_64,60.08171113,,,,,,,,,,,,,,,,,,,,,
,,,,,,9,0,9,0,1,0,001,2022-04-26_10h33.33.362,Digit Span Task,2021.2.3,Linux x86_64,60.08171113,,,,,,,,,,,,,,,,,,,,,
,,,,,,10,0,10,0,1,0,001,2022-04-26_10h33.33.362,Digit Span Task,2021.2.3,Linux x86_64,60.08171113,,,,,,,,,,,,,,,,,,,,,
,,,,,,11,0,11,0,1,0,001,2022-04-26_10h33.33.362,Digit Span Task,2021.2.3,Linux x86_64,60.08171113,,,,,,,,,,,,,,,,,,,,,
,,,,,,,,,,,0,001,2022-04-26_10h33.33.362,Digit Span Task,2021.2.3,Linux x86_64,60.08171113,8727309,0,-0.034305175,-0.396212657,1,0,0,cont_button,0,1,1,1,1,12,8.7238E+11,,,,,,
,,,,,,0,0,0,0,1,0,001,2022-04-26_10h33.33.362,Digit Span Task,2021.2.3,Linux x86_64,60.08171113,,,,,,,,,,,,,,,,,,,,,
,,,,,,1,0,1,0,1,0,001,2022-04-26_10h33.33.362,Digit Span Task,2021.2.3,Linux x86_64,60.08171113,,,,,,,,,,,,,,,,,,,,,
,,,,,,2,0,2,0,1,0,001,2022-04-26_10h33.33.362,Digit Span Task,2021.2.3,Linux x86_64,60.08171113,,,,,,,,,,,,,,,,,,,,,
,,,,,,3,0,3,0,1,0,001,2022-04-26_10h33.33.362,Digit Span Task,2021.2.3,Linux x86_64,60.08171113,,,,,,,,,,,,,,,,,,,,,
,,,,,,4,0,4,0,1,0,001,2022-04-26_10h33.33.362,Digit Span Task,2021.2.3,Linux x86_64,60.08171113,,,,,,,,,,,,,,,,,,,,,
,,,,,,5,0,5,0,1,0,001,2022-04-26_10h33.33.362,Digit Span Task,2021.2.3,Linux x86_64,60.08171113,,,,,,,,,,,,,,,,,,,,,
,,,,,,6,0,6,0,1,0,001,2022-04-26_10h33.33.362,Digit Span Task,2021.2.3,Linux x86_64,60.08171113,,,,,,,,,,,,,,,,,,,,,
,,,,,,7,0,7,0,1,0,001,2022-04-26_10h33.33.362,Digit Span Task,2021.2.3,Linux x86_64,60.08171113,,,,,,,,,,,,,,,,,,,,,
,,,,,,8,0,8,0,1,0,001,2022-04-26_10h33.33.362,Digit Span Task,2021.2.3,Linux x86_64,60.08171113,,,,,,,,,,,,,,,,,,,,,
,,,,,,9,0,9,0,1,0,001,2022-04-26_10h33.33.362,Digit Span Task,2021.2.3,Linux x86_64,60.08171113,,,,,,,,,,,,,,,,,,,,,
,,,,,,10,0,10,0,1,0,001,2022-04-26_10h33.33.362,Digit Span Task,2021.2.3,Linux x86_64,60.08171113,,,,,,,,,,,,,,,,,,,,,
,,,,,,11,0,11,0,1,0,001,2022-04-26_10h33.33.362,Digit Span Task,2021.2.3,Linux x86_64,60.08171113,,,,,,,,,,,,,,,,,,,,,
