digitSpan,digits,fixation_time,trial_PF.thisRepN,trial_PF.thisTrialN,trial_PF.thisN,trial_PF.thisIndex,digitLoop.thisRepN,digitLoop.thisTrialN,digitLoop.thisN,digitLoop.thisIndex,firs_fix.started,firs_fix.stopped,pres_text.started,pres_text.stopped,recall_txt.started,recall_txt.stopped,textbox.text,textbox.started,textbox.stopped,button_next.numClicks,button_next.timesOn,button_next.timesOff,correct,participant,session,date,expName,psychopyVersion,frameRate,
3,489,0.55,0,0,0,0,,,,,30.848936448855966,None,33.42555963034101,None,34.42695052115596,None,489,34.42695052115596,None,1,[6.287597055481456],[6.287603624034091],1,1,001,2022-06-07_22h34.15.344,DigitSpanTask_fwdback,2022.1.3,58.77659407752987,
3,235,0.55,0,1,1,1,,,,,40.71362017925276,None,43.273508743768616,43.273508743768616,44.27358346105029,None,489,44.27358346105029,None,2,"[6.287597055481456, 4.23683036181319]","[6.287603624034091, 4.236834877694491]",0,1,001,2022-06-07_22h34.15.344,DigitSpanTask_fwdback,2022.1.3,58.77659407752987,
4,6810,0.55,0,2,2,2,,,,,48.51119137516798,None,52.07219864614308,None,53.07262560199888,None,6810,53.07262560199888,None,3,"[6.287597055481456, 4.23683036181319, 2.5436129251029342]","[6.287603624034091, 4.236834877694491, 2.543617440976959]",1,1,001,2022-06-07_22h34.15.344,DigitSpanTask_fwdback,2022.1.3,58.77659407752987,
4,3168,0.55,0,3,3,3,,,,,55.61673609488935,None,59.17657867955131,59.17657867955131,60.177433001801546,None,3168,60.177433001801546,None,4,"[6.287597055481456, 4.23683036181319, 2.5436129251029342, 3.4412584688107017]","[6.287603624034091, 4.236834877694491, 2.543617440976959, 3.4412703743146267]",1,1,001,2022-06-07_22h34.15.344,DigitSpanTask_fwdback,2022.1.3,58.77659407752987,
5,81423,0.55,0,4,4,4,,,,,63.61873457673937,None,68.18586373786093,None,69.1868962320732,None,81423,69.1868962320732,None,5,"[6.287597055481456, 4.23683036181319, 2.5436129251029342, 3.4412584688107017, 2.577486535497883]","[6.287603624034091, 4.236834877694491, 2.543617440976959, 3.4412703743146267, 2.5774918724418967]",1,1,001,2022-06-07_22h34.15.344,DigitSpanTask_fwdback,2022.1.3,58.77659407752987,
5,90736,0.55,0,5,5,5,,,,,71.76466603636072,None,76.32620043360657,None,77.32598202926602,None,90736,77.32598202926602,None,6,"[6.287597055481456, 4.23683036181319, 2.5436129251029342, 3.4412584688107017, 2.577486535497883, 4.289435839411453]","[6.287603624034091, 4.236834877694491, 2.543617440976959, 3.4412703743146267, 2.5774918724418967, 4.289442818495445]",1,1,001,2022-06-07_22h34.15.344,DigitSpanTask_fwdback,2022.1.3,58.77659407752987,
6,153624,0.55,0,6,6,6,,,,,81.61674143184064,None,87.18809252954816,None,88.18819187889312,None,624,88.18819187889312,None,7,"[6.287597055481456, 4.23683036181319, 2.5436129251029342, 3.4412584688107017, 2.577486535497883, 4.289435839411453, 2.9992351742621395]","[6.287603624034091, 4.236834877694491, 2.543617440976959, 3.4412703743146267, 2.5774918724418967, 4.289442818495445, 2.9992396901434404]",0,1,001,2022-06-07_22h34.15.344,DigitSpanTask_fwdback,2022.1.3,58.77659407752987,
6,819703,0.55,0,7,7,7,,,,,91.1889177038538,None,96.74985354182718,None,97.74989787954837,None,819703,97.74989787954837,None,8,"[6.287597055481456, 4.23683036181319, 2.5436129251029342, 3.4412584688107017, 2.577486535497883, 4.289435839411453, 2.9992351742621395, 3.829401986746234]","[6.287603624034091, 4.236834877694491, 2.543617440976959, 3.4412703743146267, 2.5774918724418967, 4.289442818495445, 2.9992396901434404, 3.8294069131588913]",1,1,001,2022-06-07_22h34.15.344,DigitSpanTask_fwdback,2022.1.3,58.77659407752987,
7,1026597,0.55,0,8,8,8,,,,,101.58125893682882,None,108.14355446499394,None,109.14384635500755,None,1026597,109.14384635500755,None,9,"[6.287597055481456, 4.23683036181319, 2.5436129251029342, 3.4412584688107017, 2.577486535497883, 4.289435839411453, 2.9992351742621395, 3.829401986746234, 12.917796218076546]","[6.287603624034091, 4.236834877694491, 2.543617440976959, 3.4412703743146267, 2.5774918724418967, 4.289442818495445, 2.9992396901434404, 3.8294069131588913, 12.917801144489204]",1,1,001,2022-06-07_22h34.15.344,DigitSpanTask_fwdback,2022.1.3,58.77659407752987,
7,8765312,0.55,0,9,9,9,,,,,122.06104442435026,None,128.62323321355507,None,129.62321432896715,None,8735612,129.62321432896715,None,10,"[6.287597055481456, 4.23683036181319, 2.5436129251029342, 3.4412584688107017, 2.577486535497883, 4.289435839411453, 2.9992351742621395, 3.829401986746234, 12.917796218076546, 6.3391064060269855]","[6.287603624034091, 4.236834877694491, 2.543617440976959, 3.4412703743146267, 2.5774918724418967, 4.289442818495445, 2.9992396901434404, 3.8294069131588913, 12.917801144489204, 6.339111742970999]",0,1,001,2022-06-07_22h34.15.344,DigitSpanTask_fwdback,2022.1.3,58.77659407752987,
8,93261458,0.55,0,10,10,10,,,,,135.96341234617284,None,143.5250703142956,None,144.5253597411065,None,,144.5253597411065,None,11,"[6.287597055481456, 4.23683036181319, 2.5436129251029342, 3.4412584688107017, 2.577486535497883, 4.289435839411453, 2.9992351742621395, 3.829401986746234, 12.917796218076546, 6.3391064060269855, 2.643224600542453]","[6.287603624034091, 4.236834877694491, 2.543617440976959, 3.4412703743146267, 2.5774918724418967, 4.289442818495445, 2.9992396901434404, 3.8294069131588913, 12.917801144489204, 6.339111742970999, 2.6432295269551105]",0,1,001,2022-06-07_22h34.15.344,DigitSpanTask_fwdback,2022.1.3,58.77659407752987,
8,50914738,0.55,0,11,11,11,,,,,147.1692945662944,None,154.73215006349346,None,155.73231263514754,None,,155.73231263514754,None,12,"[6.287597055481456, 4.23683036181319, 2.5436129251029342, 3.4412584688107017, 2.577486535497883, 4.289435839411453, 2.9992351742621395, 3.829401986746234, 12.917796218076546, 6.3391064060269855, 2.643224600542453, 0.8629812439103262]","[6.287603624034091, 4.236834877694491, 2.543617440976959, 3.4412703743146267, 2.5774918724418967, 4.289442818495445, 2.9992396901434404, 3.8294069131588913, 12.917801144489204, 6.339111742970999, 2.6432295269551105, 0.862990275672928]",0,1,001,2022-06-07_22h34.15.344,DigitSpanTask_fwdback,2022.1.3,58.77659407752987,
9,431962507,0.55,0,12,12,12,,,,,156.5967130967474,None,165.15765837702202,None,166.15870031352824,None,,166.15870031352824,None,13,"[6.287597055481456, 4.23683036181319, 2.5436129251029342, 3.4412584688107017, 2.577486535497883, 4.289435839411453, 2.9992351742621395, 3.829401986746234, 12.917796218076546, 6.3391064060269855, 2.643224600542453, 0.8629812439103262, 0.4909122035096516]","[6.287603624034091, 4.236834877694491, 2.543617440976959, 3.4412703743146267, 2.5774918724418967, 4.289442818495445, 2.9992396901434404, 3.8294069131588913, 12.917801144489204, 6.339111742970999, 2.6432295269551105, 0.862990275672928, 0.49091712992230896]",0,1,001,2022-06-07_22h34.15.344,DigitSpanTask_fwdback,2022.1.3,58.77659407752987,
9,901852346,0.55,0,13,13,13,,,,,166.6493625015355,None,175.21096176323044,None,176.21053480737464,None,,176.21053480737464,None,14,"[6.287597055481456, 4.23683036181319, 2.5436129251029342, 3.4412584688107017, 2.577486535497883, 4.289435839411453, 2.9992351742621395, 3.829401986746234, 12.917796218076546, 6.3391064060269855, 2.643224600542453, 0.8629812439103262, 0.4909122035096516, 0.6943090478962404]","[6.287603624034091, 4.236834877694491, 2.543617440976959, 3.4412703743146267, 2.5774918724418967, 4.289442818495445, 2.9992396901434404, 3.8294069131588913, 12.917801144489204, 6.339111742970999, 2.6432295269551105, 0.862990275672928, 0.49091712992230896, 0.6943139743088977]",0,1,001,2022-06-07_22h34.15.344,DigitSpanTask_fwdback,2022.1.3,58.77659407752987,
10,1946738052,0.55,0,14,14,14,,,,,176.90603810006724,None,186.46980416274164,None,187.46982017358823,None,,187.46982017358823,None,15,"[6.287597055481456, 4.23683036181319, 2.5436129251029342, 3.4412584688107017, 2.577486535497883, 4.289435839411453, 2.9992351742621395, 3.829401986746234, 12.917796218076546, 6.3391064060269855, 2.643224600542453, 0.8629812439103262, 0.4909122035096516, 0.6943090478962404, 2.0678560124215437]","[6.287603624034091, 4.236834877694491, 2.543617440976959, 3.4412703743146267, 2.5774918724418967, 4.289442818495445, 2.9992396901434404, 3.8294069131588913, 12.917801144489204, 6.339111742970999, 2.6432295269551105, 0.862990275672928, 0.49091712992230896, 0.6943139743088977, 2.067860938834201]",0,1,001,2022-06-07_22h34.15.344,DigitSpanTask_fwdback,2022.1.3,58.77659407752987,
10,4127509683,0.55,0,15,15,15,,,,,189.53804033008782,None,199.09944212470145,None,200.10029973122437,None,,200.10029973122437,None,16,"[6.287597055481456, 4.23683036181319, 2.5436129251029342, 3.4412584688107017, 2.577486535497883, 4.289435839411453, 2.9992351742621395, 3.829401986746234, 12.917796218076546, 6.3391064060269855, 2.643224600542453, 0.8629812439103262, 0.4909122035096516, 0.6943090478962404, 2.0678560124215437, 0.7965378806329682]","[6.287603624034091, 4.236834877694491, 2.543617440976959, 3.4412703743146267, 2.5774918724418967, 4.289442818495445, 2.9992396901434404, 3.8294069131588913, 12.917801144489204, 6.339111742970999, 2.6432295269551105, 0.862990275672928, 0.49091712992230896, 0.6943139743088977, 2.067860938834201, 0.7965428070456255]",0,1,001,2022-06-07_22h34.15.344,DigitSpanTask_fwdback,2022.1.3,58.77659407752987,
11,23678159041,0.55,0,16,16,16,,,,,200.8977884097112,None,211.45986635460577,None,212.4603249216234,None,,212.4603249216234,None,17,"[6.287597055481456, 4.23683036181319, 2.5436129251029342, 3.4412584688107017, 2.577486535497883, 4.289435839411453, 2.9992351742621395, 3.829401986746234, 12.917796218076546, 6.3391064060269855, 2.643224600542453, 0.8629812439103262, 0.4909122035096516, 0.6943090478962404, 2.0678560124215437, 0.7965378806329682, 1.1005567258034716]","[6.287603624034091, 4.236834877694491, 2.543617440976959, 3.4412703743146267, 2.5774918724418967, 4.289442818495445, 2.9992396901434404, 3.8294069131588913, 12.917801144489204, 6.339111742970999, 2.6432295269551105, 0.862990275672928, 0.49091712992230896, 0.6943139743088977, 2.067860938834201, 0.7965428070456255, 1.100562473286118]",0,1,001,2022-06-07_22h34.15.344,DigitSpanTask_fwdback,2022.1.3,58.77659407752987,
11,73264508917,0.55,0,17,17,17,,,,,213.56216990462417,None,224.1240840462633,None,225.1242425125747,None,,225.1242425125747,None,18,"[6.287597055481456, 4.23683036181319, 2.5436129251029342, 3.4412584688107017, 2.577486535497883, 4.289435839411453, 2.9992351742621395, 3.829401986746234, 12.917796218076546, 6.3391064060269855, 2.643224600542453, 0.8629812439103262, 0.4909122035096516, 0.6943090478962404, 2.0678560124215437, 0.7965378806329682, 1.1005567258034716, 0.6079527097172104]","[6.287603624034091, 4.236834877694491, 2.543617440976959, 3.4412703743146267, 2.5774918724418967, 4.289442818495445, 2.9992396901434404, 3.8294069131588913, 12.917801144489204, 6.339111742970999, 2.6432295269551105, 0.862990275672928, 0.49091712992230896, 0.6943139743088977, 2.067860938834201, 0.7965428070456255, 1.100562473286118, 0.6079572255912353]",0,1,001,2022-06-07_22h34.15.344,DigitSpanTask_fwdback,2022.1.3,58.77659407752987,
12,415872436910,0.55,0,18,18,18,,,,,225.7340504275926,None,237.29643422067602,None,238.29669860488502,None,,238.29669860488502,None,19,"[6.287597055481456, 4.23683036181319, 2.5436129251029342, 3.4412584688107017, 2.577486535497883, 4.289435839411453, 2.9992351742621395, 3.829401986746234, 12.917796218076546, 6.3391064060269855, 2.643224600542453, 0.8629812439103262, 0.4909122035096516, 0.6943090478962404, 2.0678560124215437, 0.7965378806329682, 1.1005567258034716, 0.6079527097172104, 0.7455905517927022]","[6.287603624034091, 4.236834877694491, 2.543617440976959, 3.4412703743146267, 2.5774918724418967, 4.289442818495445, 2.9992396901434404, 3.8294069131588913, 12.917801144489204, 6.339111742970999, 2.6432295269551105, 0.862990275672928, 0.49091712992230896, 0.6943139743088977, 2.067860938834201, 0.7965428070456255, 1.100562473286118, 0.6079572255912353, 0.7455954782053595]",0,1,001,2022-06-07_22h34.15.344,DigitSpanTask_fwdback,2022.1.3,58.77659407752987,
12,706182975304,0.55,0,19,19,19,,,,,239.0425941837966,None,250.60573910780658,None,251.60591522709728,None,,251.60591522709728,None,20,"[6.287597055481456, 4.23683036181319, 2.5436129251029342, 3.4412584688107017, 2.577486535497883, 4.289435839411453, 2.9992351742621395, 3.829401986746234, 12.917796218076546, 6.3391064060269855, 2.643224600542453, 0.8629812439103262, 0.4909122035096516, 0.6943090478962404, 2.0678560124215437, 0.7965378806329682, 1.1005567258034716, 0.6079527097172104, 0.7455905517927022, 0.5424359227472451]","[6.287603624034091, 4.236834877694491, 2.543617440976959, 3.4412703743146267, 2.5774918724418967, 4.289442818495445, 2.9992396901434404, 3.8294069131588913, 12.917801144489204, 6.339111742970999, 2.6432295269551105, 0.862990275672928, 0.49091712992230896, 0.6943139743088977, 2.067860938834201, 0.7965428070456255, 1.100562473286118, 0.6079572255912353, 0.7455954782053595, 0.5424412596985349]",0,1,001,2022-06-07_22h34.15.344,DigitSpanTask_fwdback,2022.1.3,58.77659407752987,
