start_mouse.x,start_mouse.y,start_mouse.leftButton,start_mouse.midButton,start_mouse.rightButton,start_mouse.clicked_name,digitLoop.thisRepN,digitLoop.thisTrialN,digitLoop.thisN,digitLoop.thisIndex,digitLoop.ran,participant,session,date,expName,psychopyVersion,OS,frameRate,textbox.text,correct,mouse.x,mouse.y,mouse.leftButton,mouse.midButton,mouse.rightButton,mouse.clicked_name,trials.thisRepN,trials.thisTrialN,trials.thisN,trials.thisIndex,trials.ran,digitSpan,digits,blocks.thisRepN,blocks.thisTrialN,blocks.thisN,blocks.thisIndex,blocks.ran,condition_file
0.045370384,-0.39537044,1,0,0,cont_button,0,0,0,0,1,2,001,2022-01-31_12h47.15.051,Digit Span Task,2021.2.3,Win32,60.0528465,,,,,,,,,,,,,,,,,,,,,
,,,,,,1,0,1,0,1,2,001,2022-01-31_12h47.15.051,Digit Span Task,2021.2.3,Win32,60.0528465,,,,,,,,,,,,,,,,,,,,,
,,,,,,2,0,2,0,1,2,001,2022-01-31_12h47.15.051,Digit Span Task,2021.2.3,Win32,60.0528465,,,,,,,,,,,,,,,,,,,,,
,,,,,,,,,,,2,001,2022-01-31_12h47.15.051,Digit Span Task,2021.2.3,Win32,60.0528465,+7,0,0.084259274,-0.393518532,1,0,0,cont_button,0,0,0,0,1,3,217,,,,,,
,,,,,,0,0,0,0,1,2,001,2022-01-31_12h47.15.051,Digit Span Task,2021.2.3,Win32,60.0528465,,,,,,,,,,,,,,,,,,,,,
,,,,,,1,0,1,0,1,2,001,2022-01-31_12h47.15.051,Digit Span Task,2021.2.3,Win32,60.0528465,,,,,,,,,,,,,,,,,,,,,
,,,,,,2,0,2,0,1,2,001,2022-01-31_12h47.15.051,Digit Span Task,2021.2.3,Win32,60.0528465,,,,,,,,,,,,,,,,,,,,,
,,,,,,,,,,,2,001,2022-01-31_12h47.15.051,Digit Span Task,2021.2.3,Win32,60.0528465,486,1,-0.033333321,-0.390740811,1,0,0,cont_button,0,1,1,1,1,3,486,,,,,,
,,,,,,0,0,0,0,1,2,001,2022-01-31_12h47.15.051,Digit Span Task,2021.2.3,Win32,60.0528465,,,,,,,,,,,,,,,,,,,,,
,,,,,,1,0,1,0,1,2,001,2022-01-31_12h47.15.051,Digit Span Task,2021.2.3,Win32,60.0528465,,,,,,,,,,,,,,,,,,,,,
,,,,,,2,0,2,0,1,2,001,2022-01-31_12h47.15.051,Digit Span Task,2021.2.3,Win32,60.0528465,,,,,,,,,,,,,,,,,,,,,
,,,,,,,,,,,2,001,2022-01-31_12h47.15.051,Digit Span Task,2021.2.3,Win32,60.0528465,"760
",0,-0.054629617,-0.41666668,1,0,0,cont_button,0,2,2,2,1,3,760,,,,,,
,,,,,,,,,,,2,001,2022-01-31_12h47.15.051,Digit Span Task,2021.2.3,Win32,60.0528465,,,,,,,,,,,,,,,,0,0,0,0,1,three.xlsx
,,,,,,0,0,0,0,1,2,001,2022-01-31_12h47.15.051,Digit Span Task,2021.2.3,Win32,60.0528465,,,,,,,,,,,,,,,,,,,,,
,,,,,,1,0,1,0,1,2,001,2022-01-31_12h47.15.051,Digit Span Task,2021.2.3,Win32,60.0528465,,,,,,,,,,,,,,,,,,,,,
,,,,,,2,0,2,0,1,2,001,2022-01-31_12h47.15.051,Digit Span Task,2021.2.3,Win32,60.0528465,,,,,,,,,,,,,,,,,,,,,
,,,,,,3,0,3,0,1,2,001,2022-01-31_12h47.15.051,Digit Span Task,2021.2.3,Win32,60.0528465,,,,,,,,,,,,,,,,,,,,,
,,,,,,,,,,,2,001,2022-01-31_12h47.15.051,Digit Span Task,2021.2.3,Win32,60.0528465,3141,1,0.068518533,-0.387962976,1,0,0,cont_button,0,0,0,0,1,4,3141,,,,,,
,,,,,,0,0,0,0,1,2,001,2022-01-31_12h47.15.051,Digit Span Task,2021.2.3,Win32,60.0528465,,,,,,,,,,,,,,,,,,,,,
,,,,,,1,0,1,0,1,2,001,2022-01-31_12h47.15.051,Digit Span Task,2021.2.3,Win32,60.0528465,,,,,,,,,,,,,,,,,,,,,
,,,,,,2,0,2,0,1,2,001,2022-01-31_12h47.15.051,Digit Span Task,2021.2.3,Win32,60.0528465,,,,,,,,,,,,,,,,,,,,,
,,,,,,3,0,3,0,1,2,001,2022-01-31_12h47.15.051,Digit Span Task,2021.2.3,Win32,60.0528465,,,,,,,,,,,,,,,,,,,,,
,,,,,,,,,,,2,001,2022-01-31_12h47.15.051,Digit Span Task,2021.2.3,Win32,60.0528465,351,0,-0.027777765,-0.386111181,1,0,0,cont_button,0,1,1,1,1,4,6351,,,,,,
,,,,,,0,0,0,0,1,2,001,2022-01-31_12h47.15.051,Digit Span Task,2021.2.3,Win32,60.0528465,,,,,,,,,,,,,,,,,,,,,
,,,,,,1,0,1,0,1,2,001,2022-01-31_12h47.15.051,Digit Span Task,2021.2.3,Win32,60.0528465,,,,,,,,,,,,,,,,,,,,,
,,,,,,2,0,2,0,1,2,001,2022-01-31_12h47.15.051,Digit Span Task,2021.2.3,Win32,60.0528465,,,,,,,,,,,,,,,,,,,,,
,,,,,,3,0,3,0,1,2,001,2022-01-31_12h47.15.051,Digit Span Task,2021.2.3,Win32,60.0528465,,,,,,,,,,,,,,,,,,,,,
,,,,,,,,,,,2,001,2022-01-31_12h47.15.051,Digit Span Task,2021.2.3,Win32,60.0528465,2391,1,-0.064814803,-0.385185198,1,0,0,cont_button,0,2,2,2,1,4,2391,,,,,,
,,,,,,,,,,,2,001,2022-01-31_12h47.15.051,Digit Span Task,2021.2.3,Win32,60.0528465,,,,,,,,,,,,,,,,0,1,1,1,1,four.xlsx
,,,,,,0,0,0,0,1,2,001,2022-01-31_12h47.15.051,Digit Span Task,2021.2.3,Win32,60.0528465,,,,,,,,,,,,,,,,,,,,,
,,,,,,1,0,1,0,1,2,001,2022-01-31_12h47.15.051,Digit Span Task,2021.2.3,Win32,60.0528465,,,,,,,,,,,,,,,,,,,,,
,,,,,,2,0,2,0,1,2,001,2022-01-31_12h47.15.051,Digit Span Task,2021.2.3,Win32,60.0528465,,,,,,,,,,,,,,,,,,,,,
,,,,,,3,0,3,0,1,2,001,2022-01-31_12h47.15.051,Digit Span Task,2021.2.3,Win32,60.0528465,,,,,,,,,,,,,,,,,,,,,
,,,,,,4,0,4,0,1,2,001,2022-01-31_12h47.15.051,Digit Span Task,2021.2.3,Win32,60.0528465,,,,,,,,,,,,,,,,,,,,,
,,,,,,,,,,,2,001,2022-01-31_12h47.15.051,Digit Span Task,2021.2.3,Win32,60.0528465,14932,1,-0.039814746,-0.397222236,1,0,0,cont_button,0,0,0,0,1,5,14932,,,,,,
,,,,,,0,0,0,0,1,2,001,2022-01-31_12h47.15.051,Digit Span Task,2021.2.3,Win32,60.0528465,,,,,,,,,,,,,,,,,,,,,
,,,,,,1,0,1,0,1,2,001,2022-01-31_12h47.15.051,Digit Span Task,2021.2.3,Win32,60.0528465,,,,,,,,,,,,,,,,,,,,,
,,,,,,2,0,2,0,1,2,001,2022-01-31_12h47.15.051,Digit Span Task,2021.2.3,Win32,60.0528465,,,,,,,,,,,,,,,,,,,,,
,,,,,,3,0,3,0,1,2,001,2022-01-31_12h47.15.051,Digit Span Task,2021.2.3,Win32,60.0528465,,,,,,,,,,,,,,,,,,,,,
,,,,,,4,0,4,0,1,2,001,2022-01-31_12h47.15.051,Digit Span Task,2021.2.3,Win32,60.0528465,,,,,,,,,,,,,,,,,,,,,
,,,,,,,,,,,2,001,2022-01-31_12h47.15.051,Digit Span Task,2021.2.3,Win32,60.0528465,10646,1,-0.023148135,-0.380555569,1,0,0,cont_button,0,1,1,1,1,5,10646,,,,,,
,,,,,,0,0,0,0,1,2,001,2022-01-31_12h47.15.051,Digit Span Task,2021.2.3,Win32,60.0528465,,,,,,,,,,,,,,,,,,,,,
,,,,,,1,0,1,0,1,2,001,2022-01-31_12h47.15.051,Digit Span Task,2021.2.3,Win32,60.0528465,,,,,,,,,,,,,,,,,,,,,
,,,,,,2,0,2,0,1,2,001,2022-01-31_12h47.15.051,Digit Span Task,2021.2.3,Win32,60.0528465,,,,,,,,,,,,,,,,,,,,,
,,,,,,3,0,3,0,1,2,001,2022-01-31_12h47.15.051,Digit Span Task,2021.2.3,Win32,60.0528465,,,,,,,,,,,,,,,,,,,,,
,,,,,,4,0,4,0,1,2,001,2022-01-31_12h47.15.051,Digit Span Task,2021.2.3,Win32,60.0528465,,,,,,,,,,,,,,,,,,,,,
,,,,,,,,,,,2,001,2022-01-31_12h47.15.051,Digit Span Task,2021.2.3,Win32,60.0528465,74832,1,0.03425933,-0.408333347,1,0,0,cont_button,0,2,2,2,1,5,74832,,,,,,
,,,,,,,,,,,2,001,2022-01-31_12h47.15.051,Digit Span Task,2021.2.3,Win32,60.0528465,,,,,,,,,,,,,,,,0,2,2,2,1,five.xlsx
,,,,,,0,0,0,0,1,2,001,2022-01-31_12h47.15.051,Digit Span Task,2021.2.3,Win32,60.0528465,,,,,,,,,,,,,,,,,,,,,
,,,,,,1,0,1,0,1,2,001,2022-01-31_12h47.15.051,Digit Span Task,2021.2.3,Win32,60.0528465,,,,,,,,,,,,,,,,,,,,,
,,,,,,2,0,2,0,1,2,001,2022-01-31_12h47.15.051,Digit Span Task,2021.2.3,Win32,60.0528465,,,,,,,,,,,,,,,,,,,,,
,,,,,,3,0,3,0,1,2,001,2022-01-31_12h47.15.051,Digit Span Task,2021.2.3,Win32,60.0528465,,,,,,,,,,,,,,,,,,,,,
,,,,,,4,0,4,0,1,2,001,2022-01-31_12h47.15.051,Digit Span Task,2021.2.3,Win32,60.0528465,,,,,,,,,,,,,,,,,,,,,
,,,,,,5,0,5,0,1,2,001,2022-01-31_12h47.15.051,Digit Span Task,2021.2.3,Win32,60.0528465,,,,,,,,,,,,,,,,,,,,,
,,,,,,,,,,,2,001,2022-01-31_12h47.15.051,Digit Span Task,2021.2.3,Win32,60.0528465,96484,0,-0.048148136,-0.40000007,1,0,0,cont_button,0,0,0,0,1,6,934648,,,,,,
,,,,,,0,0,0,0,1,2,001,2022-01-31_12h47.15.051,Digit Span Task,2021.2.3,Win32,60.0528465,,,,,,,,,,,,,,,,,,,,,
,,,,,,1,0,1,0,1,2,001,2022-01-31_12h47.15.051,Digit Span Task,2021.2.3,Win32,60.0528465,,,,,,,,,,,,,,,,,,,,,
,,,,,,2,0,2,0,1,2,001,2022-01-31_12h47.15.051,Digit Span Task,2021.2.3,Win32,60.0528465,,,,,,,,,,,,,,,,,,,,,
,,,,,,3,0,3,0,1,2,001,2022-01-31_12h47.15.051,Digit Span Task,2021.2.3,Win32,60.0528465,,,,,,,,,,,,,,,,,,,,,
,,,,,,4,0,4,0,1,2,001,2022-01-31_12h47.15.051,Digit Span Task,2021.2.3,Win32,60.0528465,,,,,,,,,,,,,,,,,,,,,
,,,,,,5,0,5,0,1,2,001,2022-01-31_12h47.15.051,Digit Span Task,2021.2.3,Win32,60.0528465,,,,,,,,,,,,,,,,,,,,,
,,,,,,,,,,,2,001,2022-01-31_12h47.15.051,Digit Span Task,2021.2.3,Win32,60.0528465,179390,1,-0.062962894,-0.40000007,1,0,0,cont_button,0,1,1,1,1,6,179390,,,,,,
,,,,,,0,0,0,0,1,2,001,2022-01-31_12h47.15.051,Digit Span Task,2021.2.3,Win32,60.0528465,,,,,,,,,,,,,,,,,,,,,
,,,,,,1,0,1,0,1,2,001,2022-01-31_12h47.15.051,Digit Span Task,2021.2.3,Win32,60.0528465,,,,,,,,,,,,,,,,,,,,,
,,,,,,2,0,2,0,1,2,001,2022-01-31_12h47.15.051,Digit Span Task,2021.2.3,Win32,60.0528465,,,,,,,,,,,,,,,,,,,,,
,,,,,,3,0,3,0,1,2,001,2022-01-31_12h47.15.051,Digit Span Task,2021.2.3,Win32,60.0528465,,,,,,,,,,,,,,,,,,,,,
,,,,,,4,0,4,0,1,2,001,2022-01-31_12h47.15.051,Digit Span Task,2021.2.3,Win32,60.0528465,,,,,,,,,,,,,,,,,,,,,
,,,,,,5,0,5,0,1,2,001,2022-01-31_12h47.15.051,Digit Span Task,2021.2.3,Win32,60.0528465,,,,,,,,,,,,,,,,,,,,,
,,,,,,,,,,,2,001,2022-01-31_12h47.15.051,Digit Span Task,2021.2.3,Win32,60.0528465,40828,0,-0.025925857,-0.409259329,1,0,0,cont_button,0,2,2,2,1,6,408288,,,,,,
,,,,,,,,,,,2,001,2022-01-31_12h47.15.051,Digit Span Task,2021.2.3,Win32,60.0528465,,,,,,,,,,,,,,,,0,3,3,3,1,six.xlsx
,,,,,,0,0,0,0,1,2,001,2022-01-31_12h47.15.051,Digit Span Task,2021.2.3,Win32,60.0528465,,,,,,,,,,,,,,,,,,,,,
,,,,,,1,0,1,0,1,2,001,2022-01-31_12h47.15.051,Digit Span Task,2021.2.3,Win32,60.0528465,,,,,,,,,,,,,,,,,,,,,
,,,,,,2,0,2,0,1,2,001,2022-01-31_12h47.15.051,Digit Span Task,2021.2.3,Win32,60.0528465,,,,,,,,,,,,,,,,,,,,,
,,,,,,3,0,3,0,1,2,001,2022-01-31_12h47.15.051,Digit Span Task,2021.2.3,Win32,60.0528465,,,,,,,,,,,,,,,,,,,,,
,,,,,,4,0,4,0,1,2,001,2022-01-31_12h47.15.051,Digit Span Task,2021.2.3,Win32,60.0528465,,,,,,,,,,,,,,,,,,,,,
,,,,,,5,0,5,0,1,2,001,2022-01-31_12h47.15.051,Digit Span Task,2021.2.3,Win32,60.0528465,,,,,,,,,,,,,,,,,,,,,
,,,,,,6,0,6,0,1,2,001,2022-01-31_12h47.15.051,Digit Span Task,2021.2.3,Win32,60.0528465,,,,,,,,,,,,,,,,,,,,,
,,,,,,,,,,,2,001,2022-01-31_12h47.15.051,Digit Span Task,2021.2.3,Win32,60.0528465,4898237,0,0.017592606,-0.383333346,1,0,0,cont_button,0,0,0,0,1,7,4498237,,,,,,
,,,,,,0,0,0,0,1,2,001,2022-01-31_12h47.15.051,Digit Span Task,2021.2.3,Win32,60.0528465,,,,,,,,,,,,,,,,,,,,,
,,,,,,1,0,1,0,1,2,001,2022-01-31_12h47.15.051,Digit Span Task,2021.2.3,Win32,60.0528465,,,,,,,,,,,,,,,,,,,,,
,,,,,,2,0,2,0,1,2,001,2022-01-31_12h47.15.051,Digit Span Task,2021.2.3,Win32,60.0528465,,,,,,,,,,,,,,,,,,,,,
,,,,,,3,0,3,0,1,2,001,2022-01-31_12h47.15.051,Digit Span Task,2021.2.3,Win32,60.0528465,,,,,,,,,,,,,,,,,,,,,
,,,,,,4,0,4,0,1,2,001,2022-01-31_12h47.15.051,Digit Span Task,2021.2.3,Win32,60.0528465,,,,,,,,,,,,,,,,,,,,,
,,,,,,5,0,5,0,1,2,001,2022-01-31_12h47.15.051,Digit Span Task,2021.2.3,Win32,60.0528465,,,,,,,,,,,,,,,,,,,,,
,,,,,,6,0,6,0,1,2,001,2022-01-31_12h47.15.051,Digit Span Task,2021.2.3,Win32,60.0528465,,,,,,,,,,,,,,,,,,,,,
,,,,,,,,,,,2,001,2022-01-31_12h47.15.051,Digit Span Task,2021.2.3,Win32,60.0528465,2544371,1,0.006481551,-0.408333347,1,0,0,cont_button,0,1,1,1,1,7,2544371,,,,,,
,,,,,,0,0,0,0,1,2,001,2022-01-31_12h47.15.051,Digit Span Task,2021.2.3,Win32,60.0528465,,,,,,,,,,,,,,,,,,,,,
,,,,,,1,0,1,0,1,2,001,2022-01-31_12h47.15.051,Digit Span Task,2021.2.3,Win32,60.0528465,,,,,,,,,,,,,,,,,,,,,
,,,,,,2,0,2,0,1,2,001,2022-01-31_12h47.15.051,Digit Span Task,2021.2.3,Win32,60.0528465,,,,,,,,,,,,,,,,,,,,,
,,,,,,3,0,3,0,1,2,001,2022-01-31_12h47.15.051,Digit Span Task,2021.2.3,Win32,60.0528465,,,,,,,,,,,,,,,,,,,,,
,,,,,,4,0,4,0,1,2,001,2022-01-31_12h47.15.051,Digit Span Task,2021.2.3,Win32,60.0528465,,,,,,,,,,,,,,,,,,,,,
,,,,,,5,0,5,0,1,2,001,2022-01-31_12h47.15.051,Digit Span Task,2021.2.3,Win32,60.0528465,,,,,,,,,,,,,,,,,,,,,
,,,,,,6,0,6,0,1,2,001,2022-01-31_12h47.15.051,Digit Span Task,2021.2.3,Win32,60.0528465,,,,,,,,,,,,,,,,,,,,,
,,,,,,,,,,,2,001,2022-01-31_12h47.15.051,Digit Span Task,2021.2.3,Win32,60.0528465,748581,0,0.050000014,-0.42129631,1,0,0,cont_button,0,2,2,2,1,7,8875085,,,,,,
,,,,,,,,,,,2,001,2022-01-31_12h47.15.051,Digit Span Task,2021.2.3,Win32,60.0528465,,,,,,,,,,,,,,,,0,4,4,4,1,seven.xlsx
,,,,,,0,0,0,0,1,2,001,2022-01-31_12h47.15.051,Digit Span Task,2021.2.3,Win32,60.0528465,,,,,,,,,,,,,,,,,,,,,
,,,,,,1,0,1,0,1,2,001,2022-01-31_12h47.15.051,Digit Span Task,2021.2.3,Win32,60.0528465,,,,,,,,,,,,,,,,,,,,,
,,,,,,2,0,2,0,1,2,001,2022-01-31_12h47.15.051,Digit Span Task,2021.2.3,Win32,60.0528465,,,,,,,,,,,,,,,,,,,,,
,,,,,,3,0,3,0,1,2,001,2022-01-31_12h47.15.051,Digit Span Task,2021.2.3,Win32,60.0528465,,,,,,,,,,,,,,,,,,,,,
,,,,,,4,0,4,0,1,2,001,2022-01-31_12h47.15.051,Digit Span Task,2021.2.3,Win32,60.0528465,,,,,,,,,,,,,,,,,,,,,
,,,,,,5,0,5,0,1,2,001,2022-01-31_12h47.15.051,Digit Span Task,2021.2.3,Win32,60.0528465,,,,,,,,,,,,,,,,,,,,,
,,,,,,6,0,6,0,1,2,001,2022-01-31_12h47.15.051,Digit Span Task,2021.2.3,Win32,60.0528465,,,,,,,,,,,,,,,,,,,,,
,,,,,,7,0,7,0,1,2,001,2022-01-31_12h47.15.051,Digit Span Task,2021.2.3,Win32,60.0528465,,,,,,,,,,,,,,,,,,,,,
,,,,,,,,,,,2,001,2022-01-31_12h47.15.051,Digit Span Task,2021.2.3,Win32,60.0528465,428012,0,0.118518534,-0.400925939,1,0,0,cont_button,0,0,0,0,1,8,46229408,,,,,,
,,,,,,0,0,0,0,1,2,001,2022-01-31_12h47.15.051,Digit Span Task,2021.2.3,Win32,60.0528465,,,,,,,,,,,,,,,,,,,,,
,,,,,,1,0,1,0,1,2,001,2022-01-31_12h47.15.051,Digit Span Task,2021.2.3,Win32,60.0528465,,,,,,,,,,,,,,,,,,,,,
,,,,,,2,0,2,0,1,2,001,2022-01-31_12h47.15.051,Digit Span Task,2021.2.3,Win32,60.0528465,,,,,,,,,,,,,,,,,,,,,
,,,,,,3,0,3,0,1,2,001,2022-01-31_12h47.15.051,Digit Span Task,2021.2.3,Win32,60.0528465,,,,,,,,,,,,,,,,,,,,,
,,,,,,4,0,4,0,1,2,001,2022-01-31_12h47.15.051,Digit Span Task,2021.2.3,Win32,60.0528465,,,,,,,,,,,,,,,,,,,,,
,,,,,,5,0,5,0,1,2,001,2022-01-31_12h47.15.051,Digit Span Task,2021.2.3,Win32,60.0528465,,,,,,,,,,,,,,,,,,,,,
,,,,,,6,0,6,0,1,2,001,2022-01-31_12h47.15.051,Digit Span Task,2021.2.3,Win32,60.0528465,,,,,,,,,,,,,,,,,,,,,
,,,,,,7,0,7,0,1,2,001,2022-01-31_12h47.15.051,Digit Span Task,2021.2.3,Win32,60.0528465,,,,,,,,,,,,,,,,,,,,,
,,,,,,,,,,,2,001,2022-01-31_12h47.15.051,Digit Span Task,2021.2.3,Win32,60.0528465,18542,0,0.059259273,-0.409259329,1,0,0,cont_button,0,1,1,1,1,8,70967882,,,,,,
,,,,,,0,0,0,0,1,2,001,2022-01-31_12h47.15.051,Digit Span Task,2021.2.3,Win32,60.0528465,,,,,,,,,,,,,,,,,,,,,
,,,,,,1,0,1,0,1,2,001,2022-01-31_12h47.15.051,Digit Span Task,2021.2.3,Win32,60.0528465,,,,,,,,,,,,,,,,,,,,,
,,,,,,2,0,2,0,1,2,001,2022-01-31_12h47.15.051,Digit Span Task,2021.2.3,Win32,60.0528465,,,,,,,,,,,,,,,,,,,,,
,,,,,,3,0,3,0,1,2,001,2022-01-31_12h47.15.051,Digit Span Task,2021.2.3,Win32,60.0528465,,,,,,,,,,,,,,,,,,,,,
,,,,,,4,0,4,0,1,2,001,2022-01-31_12h47.15.051,Digit Span Task,2021.2.3,Win32,60.0528465,,,,,,,,,,,,,,,,,,,,,
,,,,,,5,0,5,0,1,2,001,2022-01-31_12h47.15.051,Digit Span Task,2021.2.3,Win32,60.0528465,,,,,,,,,,,,,,,,,,,,,
,,,,,,6,0,6,0,1,2,001,2022-01-31_12h47.15.051,Digit Span Task,2021.2.3,Win32,60.0528465,,,,,,,,,,,,,,,,,,,,,
,,,,,,7,0,7,0,1,2,001,2022-01-31_12h47.15.051,Digit Span Task,2021.2.3,Win32,60.0528465,,,,,,,,,,,,,,,,,,,,,
,,,,,,,,,,,2,001,2022-01-31_12h47.15.051,Digit Span Task,2021.2.3,Win32,60.0528465,139823,0,0.065740755,-0.401851865,1,0,0,cont_button,0,2,2,2,1,8,27139320,,,,,,
,,,,,,,,,,,2,001,2022-01-31_12h47.15.051,Digit Span Task,2021.2.3,Win32,60.0528465,,,,,,,,,,,,,,,,0,5,5,5,1,eight.xlsx
,,,,,,0,0,0,0,1,2,001,2022-01-31_12h47.15.051,Digit Span Task,2021.2.3,Win32,60.0528465,,,,,,,,,,,,,,,,,,,,,
,,,,,,1,0,1,0,1,2,001,2022-01-31_12h47.15.051,Digit Span Task,2021.2.3,Win32,60.0528465,,,,,,,,,,,,,,,,,,,,,
,,,,,,2,0,2,0,1,2,001,2022-01-31_12h47.15.051,Digit Span Task,2021.2.3,Win32,60.0528465,,,,,,,,,,,,,,,,,,,,,
,,,,,,3,0,3,0,1,2,001,2022-01-31_12h47.15.051,Digit Span Task,2021.2.3,Win32,60.0528465,,,,,,,,,,,,,,,,,,,,,
,,,,,,4,0,4,0,1,2,001,2022-01-31_12h47.15.051,Digit Span Task,2021.2.3,Win32,60.0528465,,,,,,,,,,,,,,,,,,,,,
,,,,,,5,0,5,0,1,2,001,2022-01-31_12h47.15.051,Digit Span Task,2021.2.3,Win32,60.0528465,,,,,,,,,,,,,,,,,,,,,
,,,,,,6,0,6,0,1,2,001,2022-01-31_12h47.15.051,Digit Span Task,2021.2.3,Win32,60.0528465,,,,,,,,,,,,,,,,,,,,,
,,,,,,7,0,7,0,1,2,001,2022-01-31_12h47.15.051,Digit Span Task,2021.2.3,Win32,60.0528465,,,,,,,,,,,,,,,,,,,,,
,,,,,,8,0,8,0,1,2,001,2022-01-31_12h47.15.051,Digit Span Task,2021.2.3,Win32,60.0528465,,,,,,,,,,,,,,,,,,,,,
,,,,,,,,,,,2,001,2022-01-31_12h47.15.051,Digit Span Task,2021.2.3,Win32,60.0528465,3387343,0,0.106481496,-0.389814828,1,0,0,cont_button,0,0,0,0,1,9,368373442,,,,,,
,,,,,,0,0,0,0,1,2,001,2022-01-31_12h47.15.051,Digit Span Task,2021.2.3,Win32,60.0528465,,,,,,,,,,,,,,,,,,,,,
,,,,,,1,0,1,0,1,2,001,2022-01-31_12h47.15.051,Digit Span Task,2021.2.3,Win32,60.0528465,,,,,,,,,,,,,,,,,,,,,
,,,,,,2,0,2,0,1,2,001,2022-01-31_12h47.15.051,Digit Span Task,2021.2.3,Win32,60.0528465,,,,,,,,,,,,,,,,,,,,,
,,,,,,3,0,3,0,1,2,001,2022-01-31_12h47.15.051,Digit Span Task,2021.2.3,Win32,60.0528465,,,,,,,,,,,,,,,,,,,,,
,,,,,,4,0,4,0,1,2,001,2022-01-31_12h47.15.051,Digit Span Task,2021.2.3,Win32,60.0528465,,,,,,,,,,,,,,,,,,,,,
,,,,,,5,0,5,0,1,2,001,2022-01-31_12h47.15.051,Digit Span Task,2021.2.3,Win32,60.0528465,,,,,,,,,,,,,,,,,,,,,
,,,,,,6,0,6,0,1,2,001,2022-01-31_12h47.15.051,Digit Span Task,2021.2.3,Win32,60.0528465,,,,,,,,,,,,,,,,,,,,,
,,,,,,7,0,7,0,1,2,001,2022-01-31_12h47.15.051,Digit Span Task,2021.2.3,Win32,60.0528465,,,,,,,,,,,,,,,,,,,,,
,,,,,,8,0,8,0,1,2,001,2022-01-31_12h47.15.051,Digit Span Task,2021.2.3,Win32,60.0528465,,,,,,,,,,,,,,,,,,,,,
,,,,,,,,,,,2,001,2022-01-31_12h47.15.051,Digit Span Task,2021.2.3,Win32,60.0528465,8336947,0,0.098148163,-0.394444458,1,0,0,cont_button,0,1,1,1,1,9,576270919,,,,,,
,,,,,,0,0,0,0,1,2,001,2022-01-31_12h47.15.051,Digit Span Task,2021.2.3,Win32,60.0528465,,,,,,,,,,,,,,,,,,,,,
,,,,,,1,0,1,0,1,2,001,2022-01-31_12h47.15.051,Digit Span Task,2021.2.3,Win32,60.0528465,,,,,,,,,,,,,,,,,,,,,
,,,,,,2,0,2,0,1,2,001,2022-01-31_12h47.15.051,Digit Span Task,2021.2.3,Win32,60.0528465,,,,,,,,,,,,,,,,,,,,,
,,,,,,3,0,3,0,1,2,001,2022-01-31_12h47.15.051,Digit Span Task,2021.2.3,Win32,60.0528465,,,,,,,,,,,,,,,,,,,,,
,,,,,,4,0,4,0,1,2,001,2022-01-31_12h47.15.051,Digit Span Task,2021.2.3,Win32,60.0528465,,,,,,,,,,,,,,,,,,,,,
,,,,,,5,0,5,0,1,2,001,2022-01-31_12h47.15.051,Digit Span Task,2021.2.3,Win32,60.0528465,,,,,,,,,,,,,,,,,,,,,
,,,,,,6,0,6,0,1,2,001,2022-01-31_12h47.15.051,Digit Span Task,2021.2.3,Win32,60.0528465,,,,,,,,,,,,,,,,,,,,,
,,,,,,7,0,7,0,1,2,001,2022-01-31_12h47.15.051,Digit Span Task,2021.2.3,Win32,60.0528465,,,,,,,,,,,,,,,,,,,,,
,,,,,,8,0,8,0,1,2,001,2022-01-31_12h47.15.051,Digit Span Task,2021.2.3,Win32,60.0528465,,,,,,,,,,,,,,,,,,,,,
,,,,,,,,,,,2,001,2022-01-31_12h47.15.051,Digit Span Task,2021.2.3,Win32,60.0528465,685897,0,0.045370384,-0.42129631,1,0,0,cont_button,0,2,2,2,1,9,688655957,,,,,,
,,,,,,,,,,,2,001,2022-01-31_12h47.15.051,Digit Span Task,2021.2.3,Win32,60.0528465,,,,,,,,,,,,,,,,0,6,6,6,1,nine.xlsx
,,,,,,0,0,0,0,1,2,001,2022-01-31_12h47.15.051,Digit Span Task,2021.2.3,Win32,60.0528465,,,,,,,,,,,,,,,,,,,,,
,,,,,,1,0,1,0,1,2,001,2022-01-31_12h47.15.051,Digit Span Task,2021.2.3,Win32,60.0528465,,,,,,,,,,,,,,,,,,,,,
,,,,,,2,0,2,0,1,2,001,2022-01-31_12h47.15.051,Digit Span Task,2021.2.3,Win32,60.0528465,,,,,,,,,,,,,,,,,,,,,
,,,,,,3,0,3,0,1,2,001,2022-01-31_12h47.15.051,Digit Span Task,2021.2.3,Win32,60.0528465,,,,,,,,,,,,,,,,,,,,,
,,,,,,4,0,4,0,1,2,001,2022-01-31_12h47.15.051,Digit Span Task,2021.2.3,Win32,60.0528465,,,,,,,,,,,,,,,,,,,,,
,,,,,,5,0,5,0,1,2,001,2022-01-31_12h47.15.051,Digit Span Task,2021.2.3,Win32,60.0528465,,,,,,,,,,,,,,,,,,,,,
,,,,,,6,0,6,0,1,2,001,2022-01-31_12h47.15.051,Digit Span Task,2021.2.3,Win32,60.0528465,,,,,,,,,,,,,,,,,,,,,
,,,,,,7,0,7,0,1,2,001,2022-01-31_12h47.15.051,Digit Span Task,2021.2.3,Win32,60.0528465,,,,,,,,,,,,,,,,,,,,,
,,,,,,8,0,8,0,1,2,001,2022-01-31_12h47.15.051,Digit Span Task,2021.2.3,Win32,60.0528465,,,,,,,,,,,,,,,,,,,,,
,,,,,,9,0,9,0,1,2,001,2022-01-31_12h47.15.051,Digit Span Task,2021.2.3,Win32,60.0528465,,,,,,,,,,,,,,,,,,,,,
,,,,,,,,,,,2,001,2022-01-31_12h47.15.051,Digit Span Task,2021.2.3,Win32,60.0528465,61320956,0,0.051851866,-0.408333347,1,0,0,cont_button,0,0,0,0,1,10,6432900801,,,,,,
,,,,,,0,0,0,0,1,2,001,2022-01-31_12h47.15.051,Digit Span Task,2021.2.3,Win32,60.0528465,,,,,,,,,,,,,,,,,,,,,
,,,,,,1,0,1,0,1,2,001,2022-01-31_12h47.15.051,Digit Span Task,2021.2.3,Win32,60.0528465,,,,,,,,,,,,,,,,,,,,,
,,,,,,2,0,2,0,1,2,001,2022-01-31_12h47.15.051,Digit Span Task,2021.2.3,Win32,60.0528465,,,,,,,,,,,,,,,,,,,,,
,,,,,,3,0,3,0,1,2,001,2022-01-31_12h47.15.051,Digit Span Task,2021.2.3,Win32,60.0528465,,,,,,,,,,,,,,,,,,,,,
,,,,,,4,0,4,0,1,2,001,2022-01-31_12h47.15.051,Digit Span Task,2021.2.3,Win32,60.0528465,,,,,,,,,,,,,,,,,,,,,
,,,,,,5,0,5,0,1,2,001,2022-01-31_12h47.15.051,Digit Span Task,2021.2.3,Win32,60.0528465,,,,,,,,,,,,,,,,,,,,,
,,,,,,6,0,6,0,1,2,001,2022-01-31_12h47.15.051,Digit Span Task,2021.2.3,Win32,60.0528465,,,,,,,,,,,,,,,,,,,,,
,,,,,,7,0,7,0,1,2,001,2022-01-31_12h47.15.051,Digit Span Task,2021.2.3,Win32,60.0528465,,,,,,,,,,,,,,,,,,,,,
,,,,,,8,0,8,0,1,2,001,2022-01-31_12h47.15.051,Digit Span Task,2021.2.3,Win32,60.0528465,,,,,,,,,,,,,,,,,,,,,
,,,,,,9,0,9,0,1,2,001,2022-01-31_12h47.15.051,Digit Span Task,2021.2.3,Win32,60.0528465,,,,,,,,,,,,,,,,,,,,,
,,,,,,,,,,,2,001,2022-01-31_12h47.15.051,Digit Span Task,2021.2.3,Win32,60.0528465,297,0,-0.088888877,-0.420370384,1,0,0,cont_button,0,1,1,1,1,10,8467348927,,,,,,
,,,,,,0,0,0,0,1,2,001,2022-01-31_12h47.15.051,Digit Span Task,2021.2.3,Win32,60.0528465,,,,,,,,,,,,,,,,,,,,,
,,,,,,1,0,1,0,1,2,001,2022-01-31_12h47.15.051,Digit Span Task,2021.2.3,Win32,60.0528465,,,,,,,,,,,,,,,,,,,,,
,,,,,,2,0,2,0,1,2,001,2022-01-31_12h47.15.051,Digit Span Task,2021.2.3,Win32,60.0528465,,,,,,,,,,,,,,,,,,,,,
,,,,,,3,0,3,0,1,2,001,2022-01-31_12h47.15.051,Digit Span Task,2021.2.3,Win32,60.0528465,,,,,,,,,,,,,,,,,,,,,
,,,,,,4,0,4,0,1,2,001,2022-01-31_12h47.15.051,Digit Span Task,2021.2.3,Win32,60.0528465,,,,,,,,,,,,,,,,,,,,,
,,,,,,5,0,5,0,1,2,001,2022-01-31_12h47.15.051,Digit Span Task,2021.2.3,Win32,60.0528465,,,,,,,,,,,,,,,,,,,,,
,,,,,,6,0,6,0,1,2,001,2022-01-31_12h47.15.051,Digit Span Task,2021.2.3,Win32,60.0528465,,,,,,,,,,,,,,,,,,,,,
,,,,,,7,0,7,0,1,2,001,2022-01-31_12h47.15.051,Digit Span Task,2021.2.3,Win32,60.0528465,,,,,,,,,,,,,,,,,,,,,
,,,,,,8,0,8,0,1,2,001,2022-01-31_12h47.15.051,Digit Span Task,2021.2.3,Win32,60.0528465,,,,,,,,,,,,,,,,,,,,,
,,,,,,9,0,9,0,1,2,001,2022-01-31_12h47.15.051,Digit Span Task,2021.2.3,Win32,60.0528465,,,,,,,,,,,,,,,,,,,,,
,,,,,,,,,,,2,001,2022-01-31_12h47.15.051,Digit Span Task,2021.2.3,Win32,60.0528465,4184946413,1,-0.09722221,-0.39166668,1,0,0,cont_button,0,2,2,2,1,10,4184946413,,,,,,
,,,,,,,,,,,2,001,2022-01-31_12h47.15.051,Digit Span Task,2021.2.3,Win32,60.0528465,,,,,,,,,,,,,,,,0,7,7,7,1,ten.xlsx
,,,,,,0,0,0,0,1,2,001,2022-01-31_12h47.15.051,Digit Span Task,2021.2.3,Win32,60.0528465,,,,,,,,,,,,,,,,,,,,,
,,,,,,1,0,1,0,1,2,001,2022-01-31_12h47.15.051,Digit Span Task,2021.2.3,Win32,60.0528465,,,,,,,,,,,,,,,,,,,,,
,,,,,,2,0,2,0,1,2,001,2022-01-31_12h47.15.051,Digit Span Task,2021.2.3,Win32,60.0528465,,,,,,,,,,,,,,,,,,,,,
,,,,,,3,0,3,0,1,2,001,2022-01-31_12h47.15.051,Digit Span Task,2021.2.3,Win32,60.0528465,,,,,,,,,,,,,,,,,,,,,
,,,,,,4,0,4,0,1,2,001,2022-01-31_12h47.15.051,Digit Span Task,2021.2.3,Win32,60.0528465,,,,,,,,,,,,,,,,,,,,,
,,,,,,5,0,5,0,1,2,001,2022-01-31_12h47.15.051,Digit Span Task,2021.2.3,Win32,60.0528465,,,,,,,,,,,,,,,,,,,,,
,,,,,,6,0,6,0,1,2,001,2022-01-31_12h47.15.051,Digit Span Task,2021.2.3,Win32,60.0528465,,,,,,,,,,,,,,,,,,,,,
,,,,,,7,0,7,0,1,2,001,2022-01-31_12h47.15.051,Digit Span Task,2021.2.3,Win32,60.0528465,,,,,,,,,,,,,,,,,,,,,
,,,,,,8,0,8,0,1,2,001,2022-01-31_12h47.15.051,Digit Span Task,2021.2.3,Win32,60.0528465,,,,,,,,,,,,,,,,,,,,,
,,,,,,9,0,9,0,1,2,001,2022-01-31_12h47.15.051,Digit Span Task,2021.2.3,Win32,60.0528465,,,,,,,,,,,,,,,,,,,,,
,,,,,,10,0,10,0,1,2,001,2022-01-31_12h47.15.051,Digit Span Task,2021.2.3,Win32,60.0528465,,,,,,,,,,,,,,,,,,,,,
,,,,,,,,,,,2,001,2022-01-31_12h47.15.051,Digit Span Task,2021.2.3,Win32,60.0528465,73290740563,1,0.053703718,-0.377777791,1,0,0,cont_button,0,0,0,0,1,11,73290740563,,,,,,
,,,,,,0,0,0,0,1,2,001,2022-01-31_12h47.15.051,Digit Span Task,2021.2.3,Win32,60.0528465,,,,,,,,,,,,,,,,,,,,,
,,,,,,1,0,1,0,1,2,001,2022-01-31_12h47.15.051,Digit Span Task,2021.2.3,Win32,60.0528465,,,,,,,,,,,,,,,,,,,,,
,,,,,,2,0,2,0,1,2,001,2022-01-31_12h47.15.051,Digit Span Task,2021.2.3,Win32,60.0528465,,,,,,,,,,,,,,,,,,,,,
,,,,,,3,0,3,0,1,2,001,2022-01-31_12h47.15.051,Digit Span Task,2021.2.3,Win32,60.0528465,,,,,,,,,,,,,,,,,,,,,
