start_mouse.x,start_mouse.y,start_mouse.leftButton,start_mouse.midButton,start_mouse.rightButton,start_mouse.clicked_name,digitLoop.thisRepN,digitLoop.thisTrialN,digitLoop.thisN,digitLoop.thisIndex,digitLoop.ran,participant,session,date,expName,psychopyVersion,OS,frameRate,textbox.text,correct,mouse.x,mouse.y,mouse.leftButton,mouse.midButton,mouse.rightButton,mouse.clicked_name,trials.thisRepN,trials.thisTrialN,trials.thisN,trials.thisIndex,trials.ran,digitSpan,digits,blocks.thisRepN,blocks.thisTrialN,blocks.thisN,blocks.thisIndex,blocks.ran,condition_file
0.009114583,-0.3984375,1,0,0,cont_button,0,0,0,0,1,hiohihio,001,2022-05-16_08h59.45.968,Digit Span Task,2021.2.3,Win32,60.0276127,,,,,,,,,,,,,,,,,,,,,
,,,,,,1,0,1,0,1,hiohihio,001,2022-05-16_08h59.45.968,Digit Span Task,2021.2.3,Win32,60.0276127,,,,,,,,,,,,,,,,,,,,,
,,,,,,2,0,2,0,1,hiohihio,001,2022-05-16_08h59.45.968,Digit Span Task,2021.2.3,Win32,60.0276127,,,,,,,,,,,,,,,,,,,,,
,,,,,,,,,,,hiohihio,001,2022-05-16_08h59.45.968,Digit Span Task,2021.2.3,Win32,60.0276127,217,1,0.014322917,-0.41796875,1,0,0,cont_button,0,0,0,0,1,3,217,,,,,,
,,,,,,0,0,0,0,1,hiohihio,001,2022-05-16_08h59.45.968,Digit Span Task,2021.2.3,Win32,60.0276127,,,,,,,,,,,,,,,,,,,,,
,,,,,,1,0,1,0,1,hiohihio,001,2022-05-16_08h59.45.968,Digit Span Task,2021.2.3,Win32,60.0276127,,,,,,,,,,,,,,,,,,,,,
,,,,,,2,0,2,0,1,hiohihio,001,2022-05-16_08h59.45.968,Digit Span Task,2021.2.3,Win32,60.0276127,,,,,,,,,,,,,,,,,,,,,
,,,,,,,,,,,hiohihio,001,2022-05-16_08h59.45.968,Digit Span Task,2021.2.3,Win32,60.0276127,486,1,-0.0078125,-0.397135417,1,0,0,cont_button,0,1,1,1,1,3,486,,,,,,
,,,,,,0,0,0,0,1,hiohihio,001,2022-05-16_08h59.45.968,Digit Span Task,2021.2.3,Win32,60.0276127,,,,,,,,,,,,,,,,,,,,,
,,,,,,1,0,1,0,1,hiohihio,001,2022-05-16_08h59.45.968,Digit Span Task,2021.2.3,Win32,60.0276127,,,,,,,,,,,,,,,,,,,,,
,,,,,,2,0,2,0,1,hiohihio,001,2022-05-16_08h59.45.968,Digit Span Task,2021.2.3,Win32,60.0276127,,,,,,,,,,,,,,,,,,,,,
,,,,,,,,,,,hiohihio,001,2022-05-16_08h59.45.968,Digit Span Task,2021.2.3,Win32,60.0276127,760,1,0,-0.403645833,1,0,0,cont_button,0,2,2,2,1,3,760,,,,,,
,,,,,,,,,,,hiohihio,001,2022-05-16_08h59.45.968,Digit Span Task,2021.2.3,Win32,60.0276127,,,,,,,,,,,,,,,,0,0,0,0,1,three.xlsx
,,,,,,0,0,0,0,1,hiohihio,001,2022-05-16_08h59.45.968,Digit Span Task,2021.2.3,Win32,60.0276127,,,,,,,,,,,,,,,,,,,,,
,,,,,,1,0,1,0,1,hiohihio,001,2022-05-16_08h59.45.968,Digit Span Task,2021.2.3,Win32,60.0276127,,,,,,,,,,,,,,,,,,,,,
,,,,,,2,0,2,0,1,hiohihio,001,2022-05-16_08h59.45.968,Digit Span Task,2021.2.3,Win32,60.0276127,,,,,,,,,,,,,,,,,,,,,
,,,,,,3,0,3,0,1,hiohihio,001,2022-05-16_08h59.45.968,Digit Span Task,2021.2.3,Win32,60.0276127,,,,,,,,,,,,,,,,,,,,,
,,,,,,,,,,,hiohihio,001,2022-05-16_08h59.45.968,Digit Span Task,2021.2.3,Win32,60.0276127,3141,1,-0.067708333,-0.397135417,1,0,0,cont_button,0,0,0,0,1,4,3141,,,,,,
,,,,,,0,0,0,0,1,hiohihio,001,2022-05-16_08h59.45.968,Digit Span Task,2021.2.3,Win32,60.0276127,,,,,,,,,,,,,,,,,,,,,
,,,,,,1,0,1,0,1,hiohihio,001,2022-05-16_08h59.45.968,Digit Span Task,2021.2.3,Win32,60.0276127,,,,,,,,,,,,,,,,,,,,,
,,,,,,2,0,2,0,1,hiohihio,001,2022-05-16_08h59.45.968,Digit Span Task,2021.2.3,Win32,60.0276127,,,,,,,,,,,,,,,,,,,,,
,,,,,,3,0,3,0,1,hiohihio,001,2022-05-16_08h59.45.968,Digit Span Task,2021.2.3,Win32,60.0276127,,,,,,,,,,,,,,,,,,,,,
,,,,,,,,,,,hiohihio,001,2022-05-16_08h59.45.968,Digit Span Task,2021.2.3,Win32,60.0276127,6351,1,0.01953125,-0.397135417,1,0,0,cont_button,0,1,1,1,1,4,6351,,,,,,
,,,,,,0,0,0,0,1,hiohihio,001,2022-05-16_08h59.45.968,Digit Span Task,2021.2.3,Win32,60.0276127,,,,,,,,,,,,,,,,,,,,,
,,,,,,1,0,1,0,1,hiohihio,001,2022-05-16_08h59.45.968,Digit Span Task,2021.2.3,Win32,60.0276127,,,,,,,,,,,,,,,,,,,,,
,,,,,,2,0,2,0,1,hiohihio,001,2022-05-16_08h59.45.968,Digit Span Task,2021.2.3,Win32,60.0276127,,,,,,,,,,,,,,,,,,,,,
,,,,,,3,0,3,0,1,hiohihio,001,2022-05-16_08h59.45.968,Digit Span Task,2021.2.3,Win32,60.0276127,,,,,,,,,,,,,,,,,,,,,
,,,,,,,,,,,hiohihio,001,2022-05-16_08h59.45.968,Digit Span Task,2021.2.3,Win32,60.0276127,2391,1,-0.0078125,-0.3984375,1,0,0,cont_button,0,2,2,2,1,4,2391,,,,,,
,,,,,,,,,,,hiohihio,001,2022-05-16_08h59.45.968,Digit Span Task,2021.2.3,Win32,60.0276127,,,,,,,,,,,,,,,,0,1,1,1,1,four.xlsx
,,,,,,0,0,0,0,1,hiohihio,001,2022-05-16_08h59.45.968,Digit Span Task,2021.2.3,Win32,60.0276127,,,,,,,,,,,,,,,,,,,,,
,,,,,,1,0,1,0,1,hiohihio,001,2022-05-16_08h59.45.968,Digit Span Task,2021.2.3,Win32,60.0276127,,,,,,,,,,,,,,,,,,,,,
,,,,,,2,0,2,0,1,hiohihio,001,2022-05-16_08h59.45.968,Digit Span Task,2021.2.3,Win32,60.0276127,,,,,,,,,,,,,,,,,,,,,
,,,,,,3,0,3,0,1,hiohihio,001,2022-05-16_08h59.45.968,Digit Span Task,2021.2.3,Win32,60.0276127,,,,,,,,,,,,,,,,,,,,,
,,,,,,4,0,4,0,1,hiohihio,001,2022-05-16_08h59.45.968,Digit Span Task,2021.2.3,Win32,60.0276127,,,,,,,,,,,,,,,,,,,,,
,,,,,,,,,,,hiohihio,001,2022-05-16_08h59.45.968,Digit Span Task,2021.2.3,Win32,60.0276127,14932,1,-0.022135417,-0.389322917,1,0,0,cont_button,0,0,0,0,1,5,14932,,,,,,
,,,,,,0,0,0,0,1,hiohihio,001,2022-05-16_08h59.45.968,Digit Span Task,2021.2.3,Win32,60.0276127,,,,,,,,,,,,,,,,,,,,,
,,,,,,1,0,1,0,1,hiohihio,001,2022-05-16_08h59.45.968,Digit Span Task,2021.2.3,Win32,60.0276127,,,,,,,,,,,,,,,,,,,,,
,,,,,,2,0,2,0,1,hiohihio,001,2022-05-16_08h59.45.968,Digit Span Task,2021.2.3,Win32,60.0276127,,,,,,,,,,,,,,,,,,,,,
,,,,,,3,0,3,0,1,hiohihio,001,2022-05-16_08h59.45.968,Digit Span Task,2021.2.3,Win32,60.0276127,,,,,,,,,,,,,,,,,,,,,
,,,,,,4,0,4,0,1,hiohihio,001,2022-05-16_08h59.45.968,Digit Span Task,2021.2.3,Win32,60.0276127,,,,,,,,,,,,,,,,,,,,,
,,,,,,,,,,,hiohihio,001,2022-05-16_08h59.45.968,Digit Span Task,2021.2.3,Win32,60.0276127,10646,1,0.001302083,-0.397135417,1,0,0,cont_button,0,1,1,1,1,5,10646,,,,,,
,,,,,,0,0,0,0,1,hiohihio,001,2022-05-16_08h59.45.968,Digit Span Task,2021.2.3,Win32,60.0276127,,,,,,,,,,,,,,,,,,,,,
,,,,,,1,0,1,0,1,hiohihio,001,2022-05-16_08h59.45.968,Digit Span Task,2021.2.3,Win32,60.0276127,,,,,,,,,,,,,,,,,,,,,
,,,,,,2,0,2,0,1,hiohihio,001,2022-05-16_08h59.45.968,Digit Span Task,2021.2.3,Win32,60.0276127,,,,,,,,,,,,,,,,,,,,,
,,,,,,3,0,3,0,1,hiohihio,001,2022-05-16_08h59.45.968,Digit Span Task,2021.2.3,Win32,60.0276127,,,,,,,,,,,,,,,,,,,,,
,,,,,,4,0,4,0,1,hiohihio,001,2022-05-16_08h59.45.968,Digit Span Task,2021.2.3,Win32,60.0276127,,,,,,,,,,,,,,,,,,,,,
,,,,,,,,,,,hiohihio,001,2022-05-16_08h59.45.968,Digit Span Task,2021.2.3,Win32,60.0276127,74832,1,-0.00390625,-0.385416667,1,0,0,cont_button,0,2,2,2,1,5,74832,,,,,,
,,,,,,,,,,,hiohihio,001,2022-05-16_08h59.45.968,Digit Span Task,2021.2.3,Win32,60.0276127,,,,,,,,,,,,,,,,0,2,2,2,1,five.xlsx
,,,,,,0,0,0,0,1,hiohihio,001,2022-05-16_08h59.45.968,Digit Span Task,2021.2.3,Win32,60.0276127,,,,,,,,,,,,,,,,,,,,,
,,,,,,1,0,1,0,1,hiohihio,001,2022-05-16_08h59.45.968,Digit Span Task,2021.2.3,Win32,60.0276127,,,,,,,,,,,,,,,,,,,,,
,,,,,,2,0,2,0,1,hiohihio,001,2022-05-16_08h59.45.968,Digit Span Task,2021.2.3,Win32,60.0276127,,,,,,,,,,,,,,,,,,,,,
,,,,,,3,0,3,0,1,hiohihio,001,2022-05-16_08h59.45.968,Digit Span Task,2021.2.3,Win32,60.0276127,,,,,,,,,,,,,,,,,,,,,
,,,,,,4,0,4,0,1,hiohihio,001,2022-05-16_08h59.45.968,Digit Span Task,2021.2.3,Win32,60.0276127,,,,,,,,,,,,,,,,,,,,,
,,,,,,5,0,5,0,1,hiohihio,001,2022-05-16_08h59.45.968,Digit Span Task,2021.2.3,Win32,60.0276127,,,,,,,,,,,,,,,,,,,,,
,,,,,,,,,,,hiohihio,001,2022-05-16_08h59.45.968,Digit Span Task,2021.2.3,Win32,60.0276127,948368,0,-0.041666667,-0.401041667,1,0,0,cont_button,0,0,0,0,1,6,934648,,,,,,
,,,,,,0,0,0,0,1,hiohihio,001,2022-05-16_08h59.45.968,Digit Span Task,2021.2.3,Win32,60.0276127,,,,,,,,,,,,,,,,,,,,,
,,,,,,1,0,1,0,1,hiohihio,001,2022-05-16_08h59.45.968,Digit Span Task,2021.2.3,Win32,60.0276127,,,,,,,,,,,,,,,,,,,,,
,,,,,,2,0,2,0,1,hiohihio,001,2022-05-16_08h59.45.968,Digit Span Task,2021.2.3,Win32,60.0276127,,,,,,,,,,,,,,,,,,,,,
,,,,,,3,0,3,0,1,hiohihio,001,2022-05-16_08h59.45.968,Digit Span Task,2021.2.3,Win32,60.0276127,,,,,,,,,,,,,,,,,,,,,
,,,,,,4,0,4,0,1,hiohihio,001,2022-05-16_08h59.45.968,Digit Span Task,2021.2.3,Win32,60.0276127,,,,,,,,,,,,,,,,,,,,,
,,,,,,5,0,5,0,1,hiohihio,001,2022-05-16_08h59.45.968,Digit Span Task,2021.2.3,Win32,60.0276127,,,,,,,,,,,,,,,,,,,,,
,,,,,,,,,,,hiohihio,001,2022-05-16_08h59.45.968,Digit Span Task,2021.2.3,Win32,60.0276127,179390,1,0.01953125,-0.401041667,1,0,0,cont_button,0,1,1,1,1,6,179390,,,,,,
,,,,,,0,0,0,0,1,hiohihio,001,2022-05-16_08h59.45.968,Digit Span Task,2021.2.3,Win32,60.0276127,,,,,,,,,,,,,,,,,,,,,
,,,,,,1,0,1,0,1,hiohihio,001,2022-05-16_08h59.45.968,Digit Span Task,2021.2.3,Win32,60.0276127,,,,,,,,,,,,,,,,,,,,,
,,,,,,2,0,2,0,1,hiohihio,001,2022-05-16_08h59.45.968,Digit Span Task,2021.2.3,Win32,60.0276127,,,,,,,,,,,,,,,,,,,,,
,,,,,,3,0,3,0,1,hiohihio,001,2022-05-16_08h59.45.968,Digit Span Task,2021.2.3,Win32,60.0276127,,,,,,,,,,,,,,,,,,,,,
,,,,,,4,0,4,0,1,hiohihio,001,2022-05-16_08h59.45.968,Digit Span Task,2021.2.3,Win32,60.0276127,,,,,,,,,,,,,,,,,,,,,
,,,,,,5,0,5,0,1,hiohihio,001,2022-05-16_08h59.45.968,Digit Span Task,2021.2.3,Win32,60.0276127,,,,,,,,,,,,,,,,,,,,,
,,,,,,,,,,,hiohihio,001,2022-05-16_08h59.45.968,Digit Span Task,2021.2.3,Win32,60.0276127,408288,1,0.071614583,-0.390625,1,0,0,cont_button,0,2,2,2,1,6,408288,,,,,,
,,,,,,,,,,,hiohihio,001,2022-05-16_08h59.45.968,Digit Span Task,2021.2.3,Win32,60.0276127,,,,,,,,,,,,,,,,0,3,3,3,1,six.xlsx
,,,,,,0,0,0,0,1,hiohihio,001,2022-05-16_08h59.45.968,Digit Span Task,2021.2.3,Win32,60.0276127,,,,,,,,,,,,,,,,,,,,,
,,,,,,1,0,1,0,1,hiohihio,001,2022-05-16_08h59.45.968,Digit Span Task,2021.2.3,Win32,60.0276127,,,,,,,,,,,,,,,,,,,,,
,,,,,,2,0,2,0,1,hiohihio,001,2022-05-16_08h59.45.968,Digit Span Task,2021.2.3,Win32,60.0276127,,,,,,,,,,,,,,,,,,,,,
,,,,,,3,0,3,0,1,hiohihio,001,2022-05-16_08h59.45.968,Digit Span Task,2021.2.3,Win32,60.0276127,,,,,,,,,,,,,,,,,,,,,
,,,,,,4,0,4,0,1,hiohihio,001,2022-05-16_08h59.45.968,Digit Span Task,2021.2.3,Win32,60.0276127,,,,,,,,,,,,,,,,,,,,,
,,,,,,5,0,5,0,1,hiohihio,001,2022-05-16_08h59.45.968,Digit Span Task,2021.2.3,Win32,60.0276127,,,,,,,,,,,,,,,,,,,,,
,,,,,,6,0,6,0,1,hiohihio,001,2022-05-16_08h59.45.968,Digit Span Task,2021.2.3,Win32,60.0276127,,,,,,,,,,,,,,,,,,,,,
