start_mouse.x,start_mouse.y,start_mouse.leftButton,start_mouse.midButton,start_mouse.rightButton,start_mouse.clicked_name,digitLoop.thisRepN,digitLoop.thisTrialN,digitLoop.thisN,digitLoop.thisIndex,digitLoop.ran,participant,session,date,expName,psychopyVersion,OS,frameRate,textbox.text,correct,mouse.x,mouse.y,mouse.leftButton,mouse.midButton,mouse.rightButton,mouse.clicked_name,trials.thisRepN,trials.thisTrialN,trials.thisN,trials.thisIndex,trials.ran,digitSpan,digits,blocks.thisRepN,blocks.thisTrialN,blocks.thisN,blocks.thisIndex,blocks.ran,condition_file
0.060185185,-0.392592593,1,0,0,cont_button,0,0,0,0,1,mike,001,2022-04-16_13h54.59.296,Digit Span Task,2021.2.3,Win32,60.45949214,,,,,,,,,,,,,,,,,,,,,
,,,,,,1,0,1,0,1,mike,001,2022-04-16_13h54.59.296,Digit Span Task,2021.2.3,Win32,60.45949214,,,,,,,,,,,,,,,,,,,,,
,,,,,,2,0,2,0,1,mike,001,2022-04-16_13h54.59.296,Digit Span Task,2021.2.3,Win32,60.45949214,,,,,,,,,,,,,,,,,,,,,
,,,,,,,,,,,mike,001,2022-04-16_13h54.59.296,Digit Span Task,2021.2.3,Win32,60.45949214,"217
",0,0.016666667,-0.407407407,1,0,0,cont_button,0,0,0,0,1,3,217,,,,,,
,,,,,,0,0,0,0,1,mike,001,2022-04-16_13h54.59.296,Digit Span Task,2021.2.3,Win32,60.45949214,,,,,,,,,,,,,,,,,,,,,
,,,,,,1,0,1,0,1,mike,001,2022-04-16_13h54.59.296,Digit Span Task,2021.2.3,Win32,60.45949214,,,,,,,,,,,,,,,,,,,,,
,,,,,,2,0,2,0,1,mike,001,2022-04-16_13h54.59.296,Digit Span Task,2021.2.3,Win32,60.45949214,,,,,,,,,,,,,,,,,,,,,
,,,,,,,,,,,mike,001,2022-04-16_13h54.59.296,Digit Span Task,2021.2.3,Win32,60.45949214,"18
",0,-0.011111111,-0.397222222,1,0,0,cont_button,0,1,1,1,1,3,486,,,,,,
,,,,,,0,0,0,0,1,mike,001,2022-04-16_13h54.59.296,Digit Span Task,2021.2.3,Win32,60.45949214,,,,,,,,,,,,,,,,,,,,,
,,,,,,1,0,1,0,1,mike,001,2022-04-16_13h54.59.296,Digit Span Task,2021.2.3,Win32,60.45949214,,,,,,,,,,,,,,,,,,,,,
,,,,,,2,0,2,0,1,mike,001,2022-04-16_13h54.59.296,Digit Span Task,2021.2.3,Win32,60.45949214,,,,,,,,,,,,,,,,,,,,,
,,,,,,,,,,,mike,001,2022-04-16_13h54.59.296,Digit Span Task,2021.2.3,Win32,60.45949214,"760
",0,-0.025925926,-0.426851852,1,0,0,cont_button,0,2,2,2,1,3,760,,,,,,
,,,,,,,,,,,mike,001,2022-04-16_13h54.59.296,Digit Span Task,2021.2.3,Win32,60.45949214,,,,,,,,,,,,,,,,0,0,0,0,1,three.xlsx
,,,,,,0,0,0,0,1,mike,001,2022-04-16_13h54.59.296,Digit Span Task,2021.2.3,Win32,60.45949214,,,,,,,,,,,,,,,,,,,,,
,,,,,,1,0,1,0,1,mike,001,2022-04-16_13h54.59.296,Digit Span Task,2021.2.3,Win32,60.45949214,,,,,,,,,,,,,,,,,,,,,
,,,,,,2,0,2,0,1,mike,001,2022-04-16_13h54.59.296,Digit Span Task,2021.2.3,Win32,60.45949214,,,,,,,,,,,,,,,,,,,,,
,,,,,,3,0,3,0,1,mike,001,2022-04-16_13h54.59.296,Digit Span Task,2021.2.3,Win32,60.45949214,,,,,,,,,,,,,,,,,,,,,
,,,,,,,,,,,mike,001,2022-04-16_13h54.59.296,Digit Span Task,2021.2.3,Win32,60.45949214,3141,1,-0.05462963,-0.405555556,1,0,0,cont_button,0,0,0,0,1,4,3141,,,,,,
,,,,,,0,0,0,0,1,mike,001,2022-04-16_13h54.59.296,Digit Span Task,2021.2.3,Win32,60.45949214,,,,,,,,,,,,,,,,,,,,,
,,,,,,1,0,1,0,1,mike,001,2022-04-16_13h54.59.296,Digit Span Task,2021.2.3,Win32,60.45949214,,,,,,,,,,,,,,,,,,,,,
,,,,,,2,0,2,0,1,mike,001,2022-04-16_13h54.59.296,Digit Span Task,2021.2.3,Win32,60.45949214,,,,,,,,,,,,,,,,,,,,,
,,,,,,3,0,3,0,1,mike,001,2022-04-16_13h54.59.296,Digit Span Task,2021.2.3,Win32,60.45949214,,,,,,,,,,,,,,,,,,,,,
,,,,,,,,,,,mike,001,2022-04-16_13h54.59.296,Digit Span Task,2021.2.3,Win32,60.45949214,6351,1,-0.027777778,-0.380555556,1,0,0,cont_button,0,1,1,1,1,4,6351,,,,,,
,,,,,,0,0,0,0,1,mike,001,2022-04-16_13h54.59.296,Digit Span Task,2021.2.3,Win32,60.45949214,,,,,,,,,,,,,,,,,,,,,
,,,,,,1,0,1,0,1,mike,001,2022-04-16_13h54.59.296,Digit Span Task,2021.2.3,Win32,60.45949214,,,,,,,,,,,,,,,,,,,,,
,,,,,,2,0,2,0,1,mike,001,2022-04-16_13h54.59.296,Digit Span Task,2021.2.3,Win32,60.45949214,,,,,,,,,,,,,,,,,,,,,
,,,,,,3,0,3,0,1,mike,001,2022-04-16_13h54.59.296,Digit Span Task,2021.2.3,Win32,60.45949214,,,,,,,,,,,,,,,,,,,,,
,,,,,,,,,,,mike,001,2022-04-16_13h54.59.296,Digit Span Task,2021.2.3,Win32,60.45949214,2391,1,-0.050925926,-0.400925926,1,0,0,cont_button,0,2,2,2,1,4,2391,,,,,,
,,,,,,,,,,,mike,001,2022-04-16_13h54.59.296,Digit Span Task,2021.2.3,Win32,60.45949214,,,,,,,,,,,,,,,,0,1,1,1,1,four.xlsx
,,,,,,0,0,0,0,1,mike,001,2022-04-16_13h54.59.296,Digit Span Task,2021.2.3,Win32,60.45949214,,,,,,,,,,,,,,,,,,,,,
,,,,,,1,0,1,0,1,mike,001,2022-04-16_13h54.59.296,Digit Span Task,2021.2.3,Win32,60.45949214,,,,,,,,,,,,,,,,,,,,,
,,,,,,2,0,2,0,1,mike,001,2022-04-16_13h54.59.296,Digit Span Task,2021.2.3,Win32,60.45949214,,,,,,,,,,,,,,,,,,,,,
,,,,,,3,0,3,0,1,mike,001,2022-04-16_13h54.59.296,Digit Span Task,2021.2.3,Win32,60.45949214,,,,,,,,,,,,,,,,,,,,,
,,,,,,4,0,4,0,1,mike,001,2022-04-16_13h54.59.296,Digit Span Task,2021.2.3,Win32,60.45949214,,,,,,,,,,,,,,,,,,,,,
,,,,,,,,,,,mike,001,2022-04-16_13h54.59.296,Digit Span Task,2021.2.3,Win32,60.45949214,149321,0,-0.038888889,-0.389814815,1,0,0,cont_button,0,0,0,0,1,5,14932,,,,,,
,,,,,,0,0,0,0,1,mike,001,2022-04-16_13h54.59.296,Digit Span Task,2021.2.3,Win32,60.45949214,,,,,,,,,,,,,,,,,,,,,
,,,,,,1,0,1,0,1,mike,001,2022-04-16_13h54.59.296,Digit Span Task,2021.2.3,Win32,60.45949214,,,,,,,,,,,,,,,,,,,,,
,,,,,,2,0,2,0,1,mike,001,2022-04-16_13h54.59.296,Digit Span Task,2021.2.3,Win32,60.45949214,,,,,,,,,,,,,,,,,,,,,
,,,,,,3,0,3,0,1,mike,001,2022-04-16_13h54.59.296,Digit Span Task,2021.2.3,Win32,60.45949214,,,,,,,,,,,,,,,,,,,,,
,,,,,,4,0,4,0,1,mike,001,2022-04-16_13h54.59.296,Digit Span Task,2021.2.3,Win32,60.45949214,,,,,,,,,,,,,,,,,,,,,
,,,,,,,,,,,mike,001,2022-04-16_13h54.59.296,Digit Span Task,2021.2.3,Win32,60.45949214,10646,1,0.067592593,-0.422222222,1,0,0,cont_button,0,1,1,1,1,5,10646,,,,,,
,,,,,,0,0,0,0,1,mike,001,2022-04-16_13h54.59.296,Digit Span Task,2021.2.3,Win32,60.45949214,,,,,,,,,,,,,,,,,,,,,
,,,,,,1,0,1,0,1,mike,001,2022-04-16_13h54.59.296,Digit Span Task,2021.2.3,Win32,60.45949214,,,,,,,,,,,,,,,,,,,,,
,,,,,,2,0,2,0,1,mike,001,2022-04-16_13h54.59.296,Digit Span Task,2021.2.3,Win32,60.45949214,,,,,,,,,,,,,,,,,,,,,
,,,,,,3,0,3,0,1,mike,001,2022-04-16_13h54.59.296,Digit Span Task,2021.2.3,Win32,60.45949214,,,,,,,,,,,,,,,,,,,,,
,,,,,,4,0,4,0,1,mike,001,2022-04-16_13h54.59.296,Digit Span Task,2021.2.3,Win32,60.45949214,,,,,,,,,,,,,,,,,,,,,
,,,,,,,,,,,mike,001,2022-04-16_13h54.59.296,Digit Span Task,2021.2.3,Win32,60.45949214,"74832
",0,0.055555556,-0.405555556,1,0,0,cont_button,0,2,2,2,1,5,74832,,,,,,
,,,,,,,,,,,mike,001,2022-04-16_13h54.59.296,Digit Span Task,2021.2.3,Win32,60.45949214,,,,,,,,,,,,,,,,0,2,2,2,1,five.xlsx
,,,,,,0,0,0,0,1,mike,001,2022-04-16_13h54.59.296,Digit Span Task,2021.2.3,Win32,60.45949214,,,,,,,,,,,,,,,,,,,,,
,,,,,,1,0,1,0,1,mike,001,2022-04-16_13h54.59.296,Digit Span Task,2021.2.3,Win32,60.45949214,,,,,,,,,,,,,,,,,,,,,
,,,,,,2,0,2,0,1,mike,001,2022-04-16_13h54.59.296,Digit Span Task,2021.2.3,Win32,60.45949214,,,,,,,,,,,,,,,,,,,,,
,,,,,,3,0,3,0,1,mike,001,2022-04-16_13h54.59.296,Digit Span Task,2021.2.3,Win32,60.45949214,,,,,,,,,,,,,,,,,,,,,
,,,,,,4,0,4,0,1,mike,001,2022-04-16_13h54.59.296,Digit Span Task,2021.2.3,Win32,60.45949214,,,,,,,,,,,,,,,,,,,,,
,,,,,,5,0,5,0,1,mike,001,2022-04-16_13h54.59.296,Digit Span Task,2021.2.3,Win32,60.45949214,,,,,,,,,,,,,,,,,,,,,
,,,,,,,,,,,mike,001,2022-04-16_13h54.59.296,Digit Span Task,2021.2.3,Win32,60.45949214,934648,1,-0.064814815,-0.406481481,1,0,0,cont_button,0,0,0,0,1,6,934648,,,,,,
,,,,,,0,0,0,0,1,mike,001,2022-04-16_13h54.59.296,Digit Span Task,2021.2.3,Win32,60.45949214,,,,,,,,,,,,,,,,,,,,,
,,,,,,1,0,1,0,1,mike,001,2022-04-16_13h54.59.296,Digit Span Task,2021.2.3,Win32,60.45949214,,,,,,,,,,,,,,,,,,,,,
,,,,,,2,0,2,0,1,mike,001,2022-04-16_13h54.59.296,Digit Span Task,2021.2.3,Win32,60.45949214,,,,,,,,,,,,,,,,,,,,,
,,,,,,3,0,3,0,1,mike,001,2022-04-16_13h54.59.296,Digit Span Task,2021.2.3,Win32,60.45949214,,,,,,,,,,,,,,,,,,,,,
,,,,,,4,0,4,0,1,mike,001,2022-04-16_13h54.59.296,Digit Span Task,2021.2.3,Win32,60.45949214,,,,,,,,,,,,,,,,,,,,,
,,,,,,5,0,5,0,1,mike,001,2022-04-16_13h54.59.296,Digit Span Task,2021.2.3,Win32,60.45949214,,,,,,,,,,,,,,,,,,,,,
,,,,,,,,,,,mike,001,2022-04-16_13h54.59.296,Digit Span Task,2021.2.3,Win32,60.45949214,179390,1,0.077777778,-0.416666667,1,0,0,cont_button,0,1,1,1,1,6,179390,,,,,,
,,,,,,0,0,0,0,1,mike,001,2022-04-16_13h54.59.296,Digit Span Task,2021.2.3,Win32,60.45949214,,,,,,,,,,,,,,,,,,,,,
,,,,,,1,0,1,0,1,mike,001,2022-04-16_13h54.59.296,Digit Span Task,2021.2.3,Win32,60.45949214,,,,,,,,,,,,,,,,,,,,,
,,,,,,2,0,2,0,1,mike,001,2022-04-16_13h54.59.296,Digit Span Task,2021.2.3,Win32,60.45949214,,,,,,,,,,,,,,,,,,,,,
,,,,,,3,0,3,0,1,mike,001,2022-04-16_13h54.59.296,Digit Span Task,2021.2.3,Win32,60.45949214,,,,,,,,,,,,,,,,,,,,,
,,,,,,4,0,4,0,1,mike,001,2022-04-16_13h54.59.296,Digit Span Task,2021.2.3,Win32,60.45949214,,,,,,,,,,,,,,,,,,,,,
,,,,,,5,0,5,0,1,mike,001,2022-04-16_13h54.59.296,Digit Span Task,2021.2.3,Win32,60.45949214,,,,,,,,,,,,,,,,,,,,,
,,,,,,,,,,,mike,001,2022-04-16_13h54.59.296,Digit Span Task,2021.2.3,Win32,60.45949214,408288,1,-0.040740741,-0.410185185,1,0,0,cont_button,0,2,2,2,1,6,408288,,,,,,
,,,,,,,,,,,mike,001,2022-04-16_13h54.59.296,Digit Span Task,2021.2.3,Win32,60.45949214,,,,,,,,,,,,,,,,0,3,3,3,1,six.xlsx
,,,,,,0,0,0,0,1,mike,001,2022-04-16_13h54.59.296,Digit Span Task,2021.2.3,Win32,60.45949214,,,,,,,,,,,,,,,,,,,,,
,,,,,,1,0,1,0,1,mike,001,2022-04-16_13h54.59.296,Digit Span Task,2021.2.3,Win32,60.45949214,,,,,,,,,,,,,,,,,,,,,
,,,,,,2,0,2,0,1,mike,001,2022-04-16_13h54.59.296,Digit Span Task,2021.2.3,Win32,60.45949214,,,,,,,,,,,,,,,,,,,,,
,,,,,,3,0,3,0,1,mike,001,2022-04-16_13h54.59.296,Digit Span Task,2021.2.3,Win32,60.45949214,,,,,,,,,,,,,,,,,,,,,
,,,,,,4,0,4,0,1,mike,001,2022-04-16_13h54.59.296,Digit Span Task,2021.2.3,Win32,60.45949214,,,,,,,,,,,,,,,,,,,,,
,,,,,,5,0,5,0,1,mike,001,2022-04-16_13h54.59.296,Digit Span Task,2021.2.3,Win32,60.45949214,,,,,,,,,,,,,,,,,,,,,
,,,,,,6,0,6,0,1,mike,001,2022-04-16_13h54.59.296,Digit Span Task,2021.2.3,Win32,60.45949214,,,,,,,,,,,,,,,,,,,,,
,,,,,,,,,,,mike,001,2022-04-16_13h54.59.296,Digit Span Task,2021.2.3,Win32,60.45949214,449823,0,-0.039814815,-0.425,1,0,0,cont_button,0,0,0,0,1,7,4498237,,,,,,
,,,,,,0,0,0,0,1,mike,001,2022-04-16_13h54.59.296,Digit Span Task,2021.2.3,Win32,60.45949214,,,,,,,,,,,,,,,,,,,,,
,,,,,,1,0,1,0,1,mike,001,2022-04-16_13h54.59.296,Digit Span Task,2021.2.3,Win32,60.45949214,,,,,,,,,,,,,,,,,,,,,
