nRepsBlockPasivas,nRepsBlockActivas,instrucciones_pasiva,instrucciones_activa,digitSpan_train,digits_train,fixation_time_train,answer_train,digitSpan,digits,fixation_time,answer,Block_Order.thisRepN,Block_Order.thisTrialN,Block_Order.thisN,Block_Order.thisIndex,BlockPasivas.thisRepN,BlockPasivas.thisTrialN,BlockPasivas.thisN,BlockPasivas.thisIndex,BlockActivas.thisRepN,BlockActivas.thisTrialN,BlockActivas.thisN,BlockActivas.thisIndex,intrLoopActivas.thisRepN,intrLoopActivas.thisTrialN,intrLoopActivas.thisN,intrLoopActivas.thisIndex,trial_train_Activas.thisRepN,trial_train_Activas.thisTrialN,trial_train_Activas.thisN,trial_train_Activas.thisIndex,train_digitloop_Activas.thisRepN,train_digitloop_Activas.thisTrialN,train_digitloop_Activas.thisN,train_digitloop_Activas.thisIndex,trialActivas.thisRepN,trialActivas.thisTrialN,trialActivas.thisN,trialActivas.thisIndex,digitLoop_Activas.thisRepN,digitLoop_Activas.thisTrialN,digitLoop_Activas.thisN,digitLoop_Activas.thisIndex,instrucloop_Pasivas.thisRepN,instrucloop_Pasivas.thisTrialN,instrucloop_Pasivas.thisN,instrucloop_Pasivas.thisIndex,trial_trainingPasivas.thisRepN,trial_trainingPasivas.thisTrialN,trial_trainingPasivas.thisN,trial_trainingPasivas.thisIndex,train_digitloopPasivas.thisRepN,train_digitloopPasivas.thisTrialN,train_digitloopPasivas.thisN,train_digitloopPasivas.thisIndex,trial_Pasiva.thisRepN,trial_Pasiva.thisTrialN,trial_Pasiva.thisN,trial_Pasiva.thisIndex,digitLoop_Pasivas.thisRepN,digitLoop_Pasivas.thisTrialN,digitLoop_Pasivas.thisN,digitLoop_Pasivas.thisIndex,bienv2.started,bienv2.stopped,key_bienv.keys,key_bienv.rt,key_bienv.started,key_bienv.stopped,firstfix_activas.started,firstfix_activas.stopped,key_resp_5.keys,key_resp_5.rt,key_resp_5.started,key_resp_5.stopped,firsfixtrain_activa.started,firsfixtrain_activa.stopped,digitpresentation_training_2.started,digitpresentation_training_2.stopped,correct,recall_train_2.started,recall_train_2.stopped,answ_train_2.text,answ_train_2.started,answ_train_2.stopped,post_recall_training_2.started,post_recall_training_2.stopped,end_training_2.started,end_training_2.stopped,first_fix_active.started,first_fix_active.stopped,pres_text_active.started,pres_text_active.stopped,recall_txt_2.started,recall_txt_2.stopped,answer_box_2.text,answer_box_2.started,answer_box_2.stopped,postrecallPR_2.started,postrecallPR_2.stopped,Dificultad_activas.started,Dificultad_activas.stopped,dif_licker_2.response,dif_licker_2.rt,dif_licker_2.started,dif_licker_2.stopped,key_resp_6.keys,key_resp_6.rt,key_resp_6.started,key_resp_6.stopped,firstfixtrain.started,firstfixtrain.stopped,digitpresentation_training.started,digitpresentation_training.stopped,recall_train.started,recall_train.stopped,answ_train.text,answ_train.started,answ_train.stopped,post_recall_training.started,post_recall_training.stopped,end_training.started,end_training.stopped,first_fix_pas.started,first_fix_pas.stopped,pres_text.started,pres_text.stopped,recall_txt.started,recall_txt.stopped,answer_box.text,answer_box.started,answer_box.stopped,postrecallPR.started,postrecallPR.stopped,Dificultad_pasivas.started,Dificultad_pasivas.stopped,dif_licker.response,dif_licker.rt,dif_licker.started,dif_licker.stopped,continuetrial_pasivas.keys,continuetrial_pasivas.rt,continuetrial_pasivas.started,continuetrial_pasivas.stopped,text_2.started,text_2.stopped,participante,sesion,orden,pasivas,activas,date,expName,psychopyVersion,frameRate,
,,,,,,,,,,,,,,,,,,,,,,,,,,,,,,,,,,,,,,,,,,,,,,,,,,,,,,,,,,,,,,,,244.98756886797855,None,space,8.620880827696965,245.13930093356976,None,,,,,,,,,,,,,,,,,,,,,,,,,,,,,,,,,,,,,,,,,,,,,,,,,,,,,,,,,,,,,,,,,,,,,,,,,,,,,,APFRRF,01,AP,FR,RF,2022-07-05_19h38.05.393,DigitSpanTask_visual,2022.1.3,58.904526987012645,
0,2,datasets/instruccion1_pasiva.png,datasets/instruccion1_activa.png,,,,,,,,,0,0,0,0,,,,,0,0,0,0,0,0,0,0,,,,,,,,,,,,,,,,,,,,,,,,,,,,,,,,,,,,,,,,,,,,,,,,,,,,,,,,,,,,,,,,,,,,,,,,,,,,,,,,,,,,,,,,,,,,,,,,,,,,,,,,,,,,,,,,,,,,,,,,APFRRF,01,AP,FR,RF,2022-07-05_19h38.05.393,DigitSpanTask_visual,2022.1.3,58.904526987012645,
0,2,datasets/instruccion2.png,datasets/instruccion2.png,,,,,,,,,0,0,0,0,,,,,0,0,0,0,0,1,1,1,,,,,,,,,,,,,,,,,,,,,,,,,,,,,,,,,,,,,,,,,,,,,,,,,,,,,,,,,,,,,,,,,,,,,,,,,,,,,,,,,,,,,,,,,,,,,,,,,,,,,,,,,,,,,,,,,,,,,,,,APFRRF,01,AP,FR,RF,2022-07-05_19h38.05.393,DigitSpanTask_visual,2022.1.3,58.904526987012645,
0,2,datasets/instruccion3.png,datasets/instruccion3.png,,,,,,,,,0,0,0,0,,,,,0,0,0,0,0,2,2,2,,,,,,,,,,,,,,,,,,,,,,,,,,,,,,,,,,,,,,,,,,,,,,,,,,,,,,,,,,,,,,,,,,,,,,,,,,,,,,,,,,,,,,,,,,,,,,,,,,,,,,,,,,,,,,,,,,,,,,,,APFRRF,01,AP,FR,RF,2022-07-05_19h38.05.393,DigitSpanTask_visual,2022.1.3,58.904526987012645,
0,2,,,2,25,0.75,25,,,,,0,0,0,0,,,,,0,0,0,0,,,,,0,0,0,0,0,0,0,0,,,,,,,,,,,,,,,,,,,,,,,,,,,,,,,,,,,278.4509052393041,None,space,3.2423159091049456,278.4509052393041,None,281.7727241750217,None,282.5376370175145,None,,,,,,,,,,,,,,,,,,,,,,,,,,,,,,,,,,,,,,,,,,,,,,,,,,,,,,,,,,,,,,,,,,,,APFRRF,01,AP,FR,RF,2022-07-05_19h38.05.393,DigitSpanTask_visual,2022.1.3,58.904526987012645,
0,2,,,2,25,0.75,25,,,,,0,0,0,0,,,,,0,0,0,0,,,,,0,0,0,0,1,0,1,0,,,,,,,,,,,,,,,,,,,,,,,,,,,,,,,,,,,,,,,,,,,283.55395677841807,None,,,,,,,,,,,,,,,,,,,,,,,,,,,,,,,,,,,,,,,,,,,,,,,,,,,,,,,,,,,,,,,,,,,,APFRRF,01,AP,FR,RF,2022-07-05_19h38.05.393,DigitSpanTask_visual,2022.1.3,58.904526987012645,
0,2,,,2,25,0.75,25,,,,,0,0,0,0,,,,,0,0,0,0,,,,,0,0,0,0,,,,,,,,,,,,,,,,,,,,,,,,,,,,,,,,,,,,,,,,,,,,,,,,,0,285.4687304480649,None,52,285.4687304480649,None,289.7918910264307,None,,,,,,,,,,,,,,,,,,,,,,,,,,,,,,,,,,,,,,,,,,,,,,,,,,,,,,,,,,,,APFRRF,01,AP,FR,RF,2022-07-05_19h38.05.393,DigitSpanTask_visual,2022.1.3,58.904526987012645,
0,2,,,2,68,0.35,86.0,,,,,0,0,0,0,,,,,0,0,0,0,,,,,0,1,1,1,0,0,0,0,,,,,,,,,,,,,,,,,,,,,,,,,,,,,,,,,,,291.2667019730543,None,space,1.6118419824597368,291.2667019730543,None,292.911801364633,None,293.26853872618085,None,,,,,,,,,,,,,,,,,,,,,,,,,,,,,,,,,,,,,,,,,,,,,,,,,,,,,,,,,,,,,,,,,,,,APFRRF,01,AP,FR,RF,2022-07-05_19h38.05.393,DigitSpanTask_visual,2022.1.3,58.904526987012645,
0,2,,,2,68,0.35,86.0,,,,,0,0,0,0,,,,,0,0,0,0,,,,,0,1,1,1,1,0,1,0,,,,,,,,,,,,,,,,,,,,,,,,,,,,,,,,,,,,,,,,,,,294.268359731017,294.268359731017,,,,,,,,,,,,,,,,,,,,,,,,,,,,,,,,,,,,,,,,,,,,,,,,,,,,,,,,,,,,,,,,,,,,APFRRF,01,AP,FR,RF,2022-07-05_19h38.05.393,DigitSpanTask_visual,2022.1.3,58.904526987012645,
0,2,,,2,68,0.35,86.0,,,,,0,0,0,0,,,,,0,0,0,0,,,,,0,1,1,1,,,,,,,,,,,,,,,,,,,,,,,,,,,,,,,,,,,,,,,,,,,,,,,,,1,295.26864341371765,None,86,295.26864341371765,None,298.3880923056713,None,,,,,,,,,,,,,,,,,,,,,,,,,,,,,,,,,,,,,,,,,,,,,,,,,,,,,,,,,,,,APFRRF,01,AP,FR,RF,2022-07-05_19h38.05.393,DigitSpanTask_visual,2022.1.3,58.904526987012645,
0,2,,,,,,,3,349,0.15,943,0,0,0,0,,,,,0,0,0,0,,,,,,,,,,,,,0,0,0,0,0,0,0,0,,,,,,,,,,,,,,,,,,,,,,,,,,,303.62670106986843,None,space,1.7963621851049538,303.62670106986843,None,,,,,,,,,,,,,299.40512968938856,None,305.44094391211183,None,305.59290177435105,None,,,,,,,,,,,,,,,,,,,,,,,,,,,,,,,,,,,,,,,,,,,,,,,,,,,,,,APFRRF,01,AP,FR,RF,2022-07-05_19h38.05.393,DigitSpanTask_visual,2022.1.3,58.904526987012645,
0,2,,,,,,,3,349,0.15,943,0,0,0,0,,,,,0,0,0,0,,,,,,,,,,,,,0,0,0,0,1,0,1,0,,,,,,,,,,,,,,,,,,,,,,,,,,,,,,,,,,,,,,,,,,,,,,,,,306.59333694607994,306.59333694607994,,,,,,,,,,,,,,,,,,,,,,,,,,,,,,,,,,,,,,,,,,,,,,,,,,,,,,APFRRF,01,AP,FR,RF,2022-07-05_19h38.05.393,DigitSpanTask_visual,2022.1.3,58.904526987012645,
0,2,,,,,,,3,349,0.15,943,0,0,0,0,,,,,0,0,0,0,,,,,,,,,,,,,0,0,0,0,2,0,2,0,,,,,,,,,,,,,,,,,,,,,,,,,,,,,,,,,,,,,,,,,,,,,,,,,307.59378525507054,None,,,,,,,,,,,,,,,,,,,,,,,,,,,,,,,,,,,,,,,,,,,,,,,,,,,,,,APFRRF,01,AP,FR,RF,2022-07-05_19h38.05.393,DigitSpanTask_visual,2022.1.3,58.904526987012645,
0,2,,,,,,,3,349,0.15,943,0,0,0,0,,,,,0,0,0,0,,,,,,,,,,,,,0,0,0,0,,,,,,,,,,,,,,,,,,,,,,,,,,,,,,,,,,,,,,,,,1,,,,,,,,,,,,,,308.59368590454324,None,943,308.59368590454324,None,311.7660200671671,None,,,,,,,,,,,,,,,,,,,,,,,,,,,,,,,,,,,,,,,,,,,,,,,APFRRF,01,AP,FR,RF,2022-07-05_19h38.05.393,DigitSpanTask_visual,2022.1.3,58.904526987012645,
0,2,,,,,,,3,256.0,0.95,652.0,0,0,0,0,,,,,0,0,0,0,,,,,,,,,,,,,0,1,1,1,0,0,0,0,,,,,,,,,,,,,,,,,,,,,,,,,,,313.24082567677397,None,space,1.6614733181122574,313.24082567677397,None,,,,,,,,,,,,,,,314.9191725989622,None,315.868870852526,None,,,,,,,,,,,,,,,,,,,,,,,,,,,,,,,,,,,,,,,,,,,,,,,,,,,,,,APFRRF,01,AP,FR,RF,2022-07-05_19h38.05.393,DigitSpanTask_visual,2022.1.3,58.904526987012645,
0,2,,,,,,,3,256.0,0.95,652.0,0,0,0,0,,,,,0,0,0,0,,,,,,,,,,,,,0,1,1,1,1,0,1,0,,,,,,,,,,,,,,,,,,,,,,,,,,,,,,,,,,,,,,,,,,,,,,,,,316.8689209383301,316.8689209383301,,,,,,,,,,,,,,,,,,,,,,,,,,,,,,,,,,,,,,,,,,,,,,,,,,,,,,APFRRF,01,AP,FR,RF,2022-07-05_19h38.05.393,DigitSpanTask_visual,2022.1.3,58.904526987012645,
0,2,,,,,,,3,256.0,0.95,652.0,0,0,0,0,,,,,0,0,0,0,,,,,,,,,,,,,0,1,1,1,2,0,2,0,,,,,,,,,,,,,,,,,,,,,,,,,,,,,,,,,,,,,,,,,,,,,,,,,317.8691902521532,317.8691902521532,,,,,,,,,,,,,,,,,,,,,,,,,,,,,,,,,,,,,,,,,,,,,,,,,,,,,,APFRRF,01,AP,FR,RF,2022-07-05_19h38.05.393,DigitSpanTask_visual,2022.1.3,58.904526987012645,
0,2,,,,,,,3,256.0,0.95,652.0,0,0,0,0,,,,,0,0,0,0,,,,,,,,,,,,,0,1,1,1,,,,,,,,,,,,,,,,,,,,,,,,,,,,,,,,,,,,,,,,,1,,,,,,,,,,,,,,318.8694193331212,None,652,318.8694193331212,None,324.22755786552443,None,,,,,,,,,,,,,,,,,,,,,,,,,,,,,,,,,,,,,,,,,,,,,,,APFRRF,01,AP,FR,RF,2022-07-05_19h38.05.393,DigitSpanTask_visual,2022.1.3,58.904526987012645,
0,2,,,,,,,4,1502.0,0.35,2051.0,0,0,0,0,,,,,0,0,0,0,,,,,,,,,,,,,0,2,2,2,0,0,0,0,,,,,,,,,,,,,,,,,,,,,,,,,,,325.70256422888633,None,space,8.388532378303353,325.70256422888633,None,,,,,,,,,,,,,,,334.11299685527047,None,334.4685530950592,None,,,,,,,,,,,,,,,,,,,,,,,,,,,,,,,,,,,,,,,,,,,,,,,,,,,,,,APFRRF,01,AP,FR,RF,2022-07-05_19h38.05.393,DigitSpanTask_visual,2022.1.3,58.904526987012645,
0,2,,,,,,,4,1502.0,0.35,2051.0,0,0,0,0,,,,,0,0,0,0,,,,,,,,,,,,,0,2,2,2,1,0,1,0,,,,,,,,,,,,,,,,,,,,,,,,,,,,,,,,,,,,,,,,,,,,,,,,,335.4690211099369,335.4690211099369,,,,,,,,,,,,,,,,,,,,,,,,,,,,,,,,,,,,,,,,,,,,,,,,,,,,,,APFRRF,01,AP,FR,RF,2022-07-05_19h38.05.393,DigitSpanTask_visual,2022.1.3,58.904526987012645,
0,2,,,,,,,4,1502.0,0.35,2051.0,0,0,0,0,,,,,0,0,0,0,,,,,,,,,,,,,0,2,2,2,2,0,2,0,,,,,,,,,,,,,,,,,,,,,,,,,,,,,,,,,,,,,,,,,,,,,,,,,336.4698688737262,None,,,,,,,,,,,,,,,,,,,,,,,,,,,,,,,,,,,,,,,,,,,,,,,,,,,,,,APFRRF,01,AP,FR,RF,2022-07-05_19h38.05.393,DigitSpanTask_visual,2022.1.3,58.904526987012645,
0,2,,,,,,,4,1502.0,0.35,2051.0,0,0,0,0,,,,,0,0,0,0,,,,,,,,,,,,,0,2,2,2,3,0,3,0,,,,,,,,,,,,,,,,,,,,,,,,,,,,,,,,,,,,,,,,,,,,,,,,,337.47042392295043,None,,,,,,,,,,,,,,,,,,,,,,,,,,,,,,,,,,,,,,,,,,,,,,,,,,,,,,APFRRF,01,AP,FR,RF,2022-07-05_19h38.05.393,DigitSpanTask_visual,2022.1.3,58.904526987012645,
0,2,,,,,,,4,1502.0,0.35,2051.0,0,0,0,0,,,,,0,0,0,0,,,,,,,,,,,,,0,2,2,2,,,,,,,,,,,,,,,,,,,,,,,,,,,,,,,,,,,,,,,,,1,,,,,,,,,,,,,,338.4880886108185,None,2051,338.4880886108185,None,341.6760536492875,None,,,,,,,,,,,,,,,,,,,,,,,,,,,,,,,,,,,,,,,,,,,,,,,APFRRF,01,AP,FR,RF,2022-07-05_19h38.05.393,DigitSpanTask_visual,2022.1.3,58.904526987012645,
0,2,,,,,,,4,3769.0,0.55,9673.0,0,0,0,0,,,,,0,0,0,0,,,,,,,,,,,,,0,3,3,3,0,0,0,0,,,,,,,,,,,,,,,,,,,,,,,,,,,343.15727311541923,None,space,1.4331284486179356,343.15727311541923,None,,,,,,,,,,,,,,,344.6156267704537,None,345.1748195679502,None,,,,,,,,,,,,,,,,,,,,,,,,,,,,,,,,,,,,,,,,,,,,,,,,,,,,,,APFRRF,01,AP,FR,RF,2022-07-05_19h38.05.393,DigitSpanTask_visual,2022.1.3,58.904526987012645,
0,2,,,,,,,4,3769.0,0.55,9673.0,0,0,0,0,,,,,0,0,0,0,,,,,,,,,,,,,0,3,3,3,1,0,1,0,,,,,,,,,,,,,,,,,,,,,,,,,,,,,,,,,,,,,,,,,,,,,,,,,346.17646213595435,None,,,,,,,,,,,,,,,,,,,,,,,,,,,,,,,,,,,,,,,,,,,,,,,,,,,,,,APFRRF,01,AP,FR,RF,2022-07-05_19h38.05.393,DigitSpanTask_visual,2022.1.3,58.904526987012645,
0,2,,,,,,,4,3769.0,0.55,9673.0,0,0,0,0,,,,,0,0,0,0,,,,,,,,,,,,,0,3,3,3,2,0,2,0,,,,,,,,,,,,,,,,,,,,,,,,,,,,,,,,,,,,,,,,,,,,,,,,,347.176550812459,None,,,,,,,,,,,,,,,,,,,,,,,,,,,,,,,,,,,,,,,,,,,,,,,,,,,,,,APFRRF,01,AP,FR,RF,2022-07-05_19h38.05.393,DigitSpanTask_visual,2022.1.3,58.904526987012645,
0,2,,,,,,,4,3769.0,0.55,9673.0,0,0,0,0,,,,,0,0,0,0,,,,,,,,,,,,,0,3,3,3,3,0,3,0,,,,,,,,,,,,,,,,,,,,,,,,,,,,,,,,,,,,,,,,,,,,,,,,,348.17711448300906,None,,,,,,,,,,,,,,,,,,,,,,,,,,,,,,,,,,,,,,,,,,,,,,,,,,,,,,APFRRF,01,AP,FR,RF,2022-07-05_19h38.05.393,DigitSpanTask_visual,2022.1.3,58.904526987012645,
0,2,,,,,,,4,3769.0,0.55,9673.0,0,0,0,0,,,,,0,0,0,0,,,,,,,,,,,,,0,3,3,3,,,,,,,,,,,,,,,,,,,,,,,,,,,,,,,,,,,,,,,,,1,,,,,,,,,,,,,,349.17820282286993,None,9673,349.17820282286993,None,355.7237845982054,None,,,,,,,,,,,,,,,,,,,,,,,,,,,,,,,,,,,,,,,,,,,,,,,APFRRF,01,AP,FR,RF,2022-07-05_19h38.05.393,DigitSpanTask_visual,2022.1.3,58.904526987012645,
0,2,,,,,,,5,80734.0,0.95,43708.0,0,0,0,0,,,,,0,0,0,0,,,,,,,,,,,,,0,4,4,4,0,0,0,0,,,,,,,,,,,,,,,,,,,,,,,,,,,357.19970605381604,None,space,0.8182053426426137,357.19970605381604,None,,,,,,,,,,,,,,,358.0484255815318,None,359.0138795149069,None,,,,,,,,,,,,,,,,,,,,,,,,,,,,,,,,,,,,,,,,,,,,,,,,,,,,,,APFRRF,01,AP,FR,RF,2022-07-05_19h38.05.393,DigitSpanTask_visual,2022.1.3,58.904526987012645,
0,2,,,,,,,5,80734.0,0.95,43708.0,0,0,0,0,,,,,0,0,0,0,,,,,,,,,,,,,0,4,4,4,1,0,1,0,,,,,,,,,,,,,,,,,,,,,,,,,,,,,,,,,,,,,,,,,,,,,,,,,360.0143171498712,360.0143171498712,,,,,,,,,,,,,,,,,,,,,,,,,,,,,,,,,,,,,,,,,,,,,,,,,,,,,,APFRRF,01,AP,FR,RF,2022-07-05_19h38.05.393,DigitSpanTask_visual,2022.1.3,58.904526987012645,
0,2,,,,,,,5,80734.0,0.95,43708.0,0,0,0,0,,,,,0,0,0,0,,,,,,,,,,,,,0,4,4,4,2,0,2,0,,,,,,,,,,,,,,,,,,,,,,,,,,,,,,,,,,,,,,,,,,,,,,,,,361.0150121930201,361.0150121930201,,,,,,,,,,,,,,,,,,,,,,,,,,,,,,,,,,,,,,,,,,,,,,,,,,,,,,APFRRF,01,AP,FR,RF,2022-07-05_19h38.05.393,DigitSpanTask_visual,2022.1.3,58.904526987012645,
0,2,,,,,,,5,80734.0,0.95,43708.0,0,0,0,0,,,,,0,0,0,0,,,,,,,,,,,,,0,4,4,4,3,0,3,0,,,,,,,,,,,,,,,,,,,,,,,,,,,,,,,,,,,,,,,,,,,,,,,,,362.0153939946322,None,,,,,,,,,,,,,,,,,,,,,,,,,,,,,,,,,,,,,,,,,,,,,,,,,,,,,,APFRRF,01,AP,FR,RF,2022-07-05_19h38.05.393,DigitSpanTask_visual,2022.1.3,58.904526987012645,
0,2,,,,,,,5,80734.0,0.95,43708.0,0,0,0,0,,,,,0,0,0,0,,,,,,,,,,,,,0,4,4,4,4,0,4,0,,,,,,,,,,,,,,,,,,,,,,,,,,,,,,,,,,,,,,,,,,,,,,,,,363.01701685674925,None,,,,,,,,,,,,,,,,,,,,,,,,,,,,,,,,,,,,,,,,,,,,,,,,,,,,,,APFRRF,01,AP,FR,RF,2022-07-05_19h38.05.393,DigitSpanTask_visual,2022.1.3,58.904526987012645,
0,2,,,,,,,5,80734.0,0.95,43708.0,0,0,0,0,,,,,0,0,0,0,,,,,,,,,,,,,0,4,4,4,,,,,,,,,,,,,,,,,,,,,,,,,,,,,,,,,,,,,,,,,1,,,,,,,,,,,,,,364.0179348227721,None,43708,364.0179348227721,None,370.4268271054534,None,,,,,,,,,,,,,,,,,,,,,,,,,,,,,,,,,,,,,,,,,,,,,,,APFRRF,01,AP,FR,RF,2022-07-05_19h38.05.393,DigitSpanTask_visual,2022.1.3,58.904526987012645,
0,2,,,,,,,5,23569.0,0.35,96532.0,0,0,0,0,,,,,0,0,0,0,,,,,,,,,,,,,0,5,5,5,0,0,0,0,,,,,,,,,,,,,,,,,,,,,,,,,,,371.90115525777946,None,space,1.7303014745411929,371.90115525777946,None,,,,,,,,,,,,,,,373.649331641911,None,374.0032022070627,None,,,,,,,,,,,,,,,,,,,,,,,,,,,,,,,,,,,,,,,,,,,,,,,,,,,,,,APFRRF,01,AP,FR,RF,2022-07-05_19h38.05.393,DigitSpanTask_visual,2022.1.3,58.904526987012645,
0,2,,,,,,,5,23569.0,0.35,96532.0,0,0,0,0,,,,,0,0,0,0,,,,,,,,,,,,,0,5,5,5,1,0,1,0,,,,,,,,,,,,,,,,,,,,,,,,,,,,,,,,,,,,,,,,,,,,,,,,,375.00403929682943,None,,,,,,,,,,,,,,,,,,,,,,,,,,,,,,,,,,,,,,,,,,,,,,,,,,,,,,APFRRF,01,AP,FR,RF,2022-07-05_19h38.05.393,DigitSpanTask_visual,2022.1.3,58.904526987012645,
0,2,,,,,,,5,23569.0,0.35,96532.0,0,0,0,0,,,,,0,0,0,0,,,,,,,,,,,,,0,5,5,5,2,0,2,0,,,,,,,,,,,,,,,,,,,,,,,,,,,,,,,,,,,,,,,,,,,,,,,,,376.00413782627584,None,,,,,,,,,,,,,,,,,,,,,,,,,,,,,,,,,,,,,,,,,,,,,,,,,,,,,,APFRRF,01,AP,FR,RF,2022-07-05_19h38.05.393,DigitSpanTask_visual,2022.1.3,58.904526987012645,
0,2,,,,,,,5,23569.0,0.35,96532.0,0,0,0,0,,,,,0,0,0,0,,,,,,,,,,,,,0,5,5,5,3,0,3,0,,,,,,,,,,,,,,,,,,,,,,,,,,,,,,,,,,,,,,,,,,,,,,,,,377.00433529571455,None,,,,,,,,,,,,,,,,,,,,,,,,,,,,,,,,,,,,,,,,,,,,,,,,,,,,,,APFRRF,01,AP,FR,RF,2022-07-05_19h38.05.393,DigitSpanTask_visual,2022.1.3,58.904526987012645,
0,2,,,,,,,5,23569.0,0.35,96532.0,0,0,0,0,,,,,0,0,0,0,,,,,,,,,,,,,0,5,5,5,4,0,4,0,,,,,,,,,,,,,,,,,,,,,,,,,,,,,,,,,,,,,,,,,,,,,,,,,378.0046267786638,None,,,,,,,,,,,,,,,,,,,,,,,,,,,,,,,,,,,,,,,,,,,,,,,,,,,,,,APFRRF,01,AP,FR,RF,2022-07-05_19h38.05.393,DigitSpanTask_visual,2022.1.3,58.904526987012645,
0,2,,,,,,,5,23569.0,0.35,96532.0,0,0,0,0,,,,,0,0,0,0,,,,,,,,,,,,,0,5,5,5,,,,,,,,,,,,,,,,,,,,,,,,,,,,,,,,,,,,,,,,,1,,,,,,,,,,,,,,379.0048817236093,None,96532,379.0048817236093,None,384.5328669606133,None,,,,,,,,,,,,,,,,,,,,,,,,,,,,,,,,,,,,,,,,,,,,,,,APFRRF,01,AP,FR,RF,2022-07-05_19h38.05.393,DigitSpanTask_visual,2022.1.3,58.904526987012645,
0,2,,,,,,,6,741802.0,0.55,208147.0,0,0,0,0,,,,,0,0,0,0,,,,,,,,,,,,,0,6,6,6,0,0,0,0,,,,,,,,,,,,,,,,,,,,,,,,,,,386.00909016265723,None,space,15.062322313518962,386.00909016265723,None,,,,,,,,,,,,,,,401.096388895734,None,401.65615685888406,None,,,,,,,,,,,,,,,,,,,,,,,,,,,,,,,,,,,,,,,,,,,,,,,,,,,,,,APFRRF,01,AP,FR,RF,2022-07-05_19h38.05.393,DigitSpanTask_visual,2022.1.3,58.904526987012645,
0,2,,,,,,,6,741802.0,0.55,208147.0,0,0,0,0,,,,,0,0,0,0,,,,,,,,,,,,,0,6,6,6,1,0,1,0,,,,,,,,,,,,,,,,,,,,,,,,,,,,,,,,,,,,,,,,,,,,,,,,,402.65607105615345,402.65607105615345,,,,,,,,,,,,,,,,,,,,,,,,,,,,,,,,,,,,,,,,,,,,,,,,,,,,,,APFRRF,01,AP,FR,RF,2022-07-05_19h38.05.393,DigitSpanTask_visual,2022.1.3,58.904526987012645,
0,2,,,,,,,6,741802.0,0.55,208147.0,0,0,0,0,,,,,0,0,0,0,,,,,,,,,,,,,0,6,6,6,2,0,2,0,,,,,,,,,,,,,,,,,,,,,,,,,,,,,,,,,,,,,,,,,,,,,,,,,403.6559072509481,403.6559072509481,,,,,,,,,,,,,,,,,,,,,,,,,,,,,,,,,,,,,,,,,,,,,,,,,,,,,,APFRRF,01,AP,FR,RF,2022-07-05_19h38.05.393,DigitSpanTask_visual,2022.1.3,58.904526987012645,
0,2,,,,,,,6,741802.0,0.55,208147.0,0,0,0,0,,,,,0,0,0,0,,,,,,,,,,,,,0,6,6,6,3,0,3,0,,,,,,,,,,,,,,,,,,,,,,,,,,,,,,,,,,,,,,,,,,,,,,,,,404.6589908121314,None,,,,,,,,,,,,,,,,,,,,,,,,,,,,,,,,,,,,,,,,,,,,,,,,,,,,,,APFRRF,01,AP,FR,RF,2022-07-05_19h38.05.393,DigitSpanTask_visual,2022.1.3,58.904526987012645,
0,2,,,,,,,6,741802.0,0.55,208147.0,0,0,0,0,,,,,0,0,0,0,,,,,,,,,,,,,0,6,6,6,4,0,4,0,,,,,,,,,,,,,,,,,,,,,,,,,,,,,,,,,,,,,,,,,,,,,,,,,405.65733592794277,None,,,,,,,,,,,,,,,,,,,,,,,,,,,,,,,,,,,,,,,,,,,,,,,,,,,,,,APFRRF,01,AP,FR,RF,2022-07-05_19h38.05.393,DigitSpanTask_visual,2022.1.3,58.904526987012645,
0,2,,,,,,,6,741802.0,0.55,208147.0,0,0,0,0,,,,,0,0,0,0,,,,,,,,,,,,,0,6,6,6,5,0,5,0,,,,,,,,,,,,,,,,,,,,,,,,,,,,,,,,,,,,,,,,,,,,,,,,,406.6566532009783,406.6566532009783,,,,,,,,,,,,,,,,,,,,,,,,,,,,,,,,,,,,,,,,,,,,,,,,,,,,,,APFRRF,01,AP,FR,RF,2022-07-05_19h38.05.393,DigitSpanTask_visual,2022.1.3,58.904526987012645,
0,2,,,,,,,6,741802.0,0.55,208147.0,0,0,0,0,,,,,0,0,0,0,,,,,,,,,,,,,0,6,6,6,,,,,,,,,,,,,,,,,,,,,,,,,,,,,,,,,,,,,,,,,0,,,,,,,,,,,,,,407.6565279864699,None,6,407.6565279864699,None,411.3193610365306,None,,,,,,,,,,,,,,,,,,,,,,,,,,,,,,,,,,,,,,,,,,,,,,,APFRRF,01,AP,FR,RF,2022-07-05_19h38.05.393,DigitSpanTask_visual,2022.1.3,58.904526987012645,
0,2,,,,,,,6,956374.0,0.95,473659.0,0,0,0,0,,,,,0,0,0,0,,,,,,,,,,,,,0,7,7,7,0,0,0,0,,,,,,,,,,,,,,,,,,,,,,,,,,,412.7952274798663,None,space,1.4736741375454585,412.7952274798663,None,,,,,,,,,,,,,,,414.28659096320916,None,415.23619848757517,None,,,,,,,,,,,,,,,,,,,,,,,,,,,,,,,,,,,,,,,,,,,,,,,,,,,,,,APFRRF,01,AP,FR,RF,2022-07-05_19h38.05.393,DigitSpanTask_visual,2022.1.3,58.904526987012645,
0,2,,,,,,,6,956374.0,0.95,473659.0,0,0,0,0,,,,,0,0,0,0,,,,,,,,,,,,,0,7,7,7,1,0,1,0,,,,,,,,,,,,,,,,,,,,,,,,,,,,,,,,,,,,,,,,,,,,,,,,,416.2362711530441,416.2362711530441,,,,,,,,,,,,,,,,,,,,,,,,,,,,,,,,,,,,,,,,,,,,,,,,,,,,,,APFRRF,01,AP,FR,RF,2022-07-05_19h38.05.393,DigitSpanTask_visual,2022.1.3,58.904526987012645,
0,2,,,,,,,6,956374.0,0.95,473659.0,0,0,0,0,,,,,0,0,0,0,,,,,,,,,,,,,0,7,7,7,2,0,2,0,,,,,,,,,,,,,,,,,,,,,,,,,,,,,,,,,,,,,,,,,,,,,,,,,417.23665582843023,417.23665582843023,,,,,,,,,,,,,,,,,,,,,,,,,,,,,,,,,,,,,,,,,,,,,,,,,,,,,,APFRRF,01,AP,FR,RF,2022-07-05_19h38.05.393,DigitSpanTask_visual,2022.1.3,58.904526987012645,
0,2,,,,,,,6,956374.0,0.95,473659.0,0,0,0,0,,,,,0,0,0,0,,,,,,,,,,,,,0,7,7,7,3,0,3,0,,,,,,,,,,,,,,,,,,,,,,,,,,,,,,,,,,,,,,,,,,,,,,,,,418.23710290579766,None,,,,,,,,,,,,,,,,,,,,,,,,,,,,,,,,,,,,,,,,,,,,,,,,,,,,,,APFRRF,01,AP,FR,RF,2022-07-05_19h38.05.393,DigitSpanTask_visual,2022.1.3,58.904526987012645,
0,2,,,,,,,6,956374.0,0.95,473659.0,0,0,0,0,,,,,0,0,0,0,,,,,,,,,,,,,0,7,7,7,4,0,4,0,,,,,,,,,,,,,,,,,,,,,,,,,,,,,,,,,,,,,,,,,,,,,,,,,419.2390365462161,None,,,,,,,,,,,,,,,,,,,,,,,,,,,,,,,,,,,,,,,,,,,,,,,,,,,,,,APFRRF,01,AP,FR,RF,2022-07-05_19h38.05.393,DigitSpanTask_visual,2022.1.3,58.904526987012645,
0,2,,,,,,,6,956374.0,0.95,473659.0,0,0,0,0,,,,,0,0,0,0,,,,,,,,,,,,,0,7,7,7,5,0,5,0,,,,,,,,,,,,,,,,,,,,,,,,,,,,,,,,,,,,,,,,,,,,,,,,,420.2386161539034,None,,,,,,,,,,,,,,,,,,,,,,,,,,,,,,,,,,,,,,,,,,,,,,,,,,,,,,APFRRF,01,AP,FR,RF,2022-07-05_19h38.05.393,DigitSpanTask_visual,2022.1.3,58.904526987012645,
0,2,,,,,,,6,956374.0,0.95,473659.0,0,0,0,0,,,,,0,0,0,0,,,,,,,,,,,,,0,7,7,7,,,,,,,,,,,,,,,,,,,,,,,,,,,,,,,,,,,,,,,,,0,,,,,,,,,,,,,,421.2386108168939,None,6,421.2386108168939,None,422.83257958305694,None,,,,,,,,,,,,,,,,,,,,,,,,,,,,,,,,,,,,,,,,,,,,,,,APFRRF,01,AP,FR,RF,2022-07-05_19h38.05.393,DigitSpanTask_visual,2022.1.3,58.904526987012645,
0,2,,,,,,,7,1032645.0,0.75,5462301.0,0,0,0,0,,,,,0,0,0,0,,,,,,,,,,,,,0,8,8,8,0,0,0,0,,,,,,,,,,,,,,,,,,,,,,,,,,,424.3072156399103,None,space,7.330295726991608,424.3072156399103,None,,,,,,,,,,,,,,,431.6671453555682,None,432.4303199743845,None,,,,,,,,,,,,,,,,,,,,,,,,,,,,,,,,,,,,,,,,,,,,,,,,,,,,,,APFRRF,01,AP,FR,RF,2022-07-05_19h38.05.393,DigitSpanTask_visual,2022.1.3,58.904526987012645,
0,2,,,,,,,7,1032645.0,0.75,5462301.0,0,0,0,0,,,,,0,0,0,0,,,,,,,,,,,,,0,8,8,8,1,0,1,0,,,,,,,,,,,,,,,,,,,,,,,,,,,,,,,,,,,,,,,,,,,,,,,,,433.43083396966904,433.43083396966904,,,,,,,,,,,,,,,,,,,,,,,,,,,,,,,,,,,,,,,,,,,,,,,,,,,,,,APFRRF,01,AP,FR,RF,2022-07-05_19h38.05.393,DigitSpanTask_visual,2022.1.3,58.904526987012645,
0,2,,,,,,,7,1032645.0,0.75,5462301.0,0,0,0,0,,,,,0,0,0,0,,,,,,,,,,,,,0,8,8,8,2,0,2,0,,,,,,,,,,,,,,,,,,,,,,,,,,,,,,,,,,,,,,,,,,,,,,,,,434.43069561790253,434.43069561790253,,,,,,,,,,,,,,,,,,,,,,,,,,,,,,,,,,,,,,,,,,,,,,,,,,,,,,APFRRF,01,AP,FR,RF,2022-07-05_19h38.05.393,DigitSpanTask_visual,2022.1.3,58.904526987012645,
0,2,,,,,,,7,1032645.0,0.75,5462301.0,0,0,0,0,,,,,0,0,0,0,,,,,,,,,,,,,0,8,8,8,3,0,3,0,,,,,,,,,,,,,,,,,,,,,,,,,,,,,,,,,,,,,,,,,,,,,,,,,435.4309862797745,435.4309862797745,,,,,,,,,,,,,,,,,,,,,,,,,,,,,,,,,,,,,,,,,,,,,,,,,,,,,,APFRRF,01,AP,FR,RF,2022-07-05_19h38.05.393,DigitSpanTask_visual,2022.1.3,58.904526987012645,
0,2,,,,,,,7,1032645.0,0.75,5462301.0,0,0,0,0,,,,,0,0,0,0,,,,,,,,,,,,,0,8,8,8,4,0,4,0,,,,,,,,,,,,,,,,,,,,,,,,,,,,,,,,,,,,,,,,,,,,,,,,,436.4320881674357,None,,,,,,,,,,,,,,,,,,,,,,,,,,,,,,,,,,,,,,,,,,,,,,,,,,,,,,APFRRF,01,AP,FR,RF,2022-07-05_19h38.05.393,DigitSpanTask_visual,2022.1.3,58.904526987012645,
0,2,,,,,,,7,1032645.0,0.75,5462301.0,0,0,0,0,,,,,0,0,0,0,,,,,,,,,,,,,0,8,8,8,5,0,5,0,,,,,,,,,,,,,,,,,,,,,,,,,,,,,,,,,,,,,,,,,,,,,,,,,437.4315704772962,None,,,,,,,,,,,,,,,,,,,,,,,,,,,,,,,,,,,,,,,,,,,,,,,,,,,,,,APFRRF,01,AP,FR,RF,2022-07-05_19h38.05.393,DigitSpanTask_visual,2022.1.3,58.904526987012645,
0,2,,,,,,,7,1032645.0,0.75,5462301.0,0,0,0,0,,,,,0,0,0,0,,,,,,,,,,,,,0,8,8,8,6,0,6,0,,,,,,,,,,,,,,,,,,,,,,,,,,,,,,,,,,,,,,,,,,,,,,,,,438.43243671535674,None,,,,,,,,,,,,,,,,,,,,,,,,,,,,,,,,,,,,,,,,,,,,,,,,,,,,,,APFRRF,01,AP,FR,RF,2022-07-05_19h38.05.393,DigitSpanTask_visual,2022.1.3,58.904526987012645,
0,2,,,,,,,7,1032645.0,0.75,5462301.0,0,0,0,0,,,,,0,0,0,0,,,,,,,,,,,,,0,8,8,8,,,,,,,,,,,,,,,,,,,,,,,,,,,,,,,,,,,,,,,,,1,,,,,,,,,,,,,,439.5516643265946,None,5462301,439.5516643265946,None,459.37273279634974,None,,,,,,,,,,,,,,,,,,,,,,,,,,,,,,,,,,,,,,,,,,,,,,,APFRRF,01,AP,FR,RF,2022-07-05_19h38.05.393,DigitSpanTask_visual,2022.1.3,58.904526987012645,
0,2,,,,,,,7,6754102.0,0.15,2014576.0,0,0,0,0,,,,,0,0,0,0,,,,,,,,,,,,,0,9,9,9,0,0,0,0,,,,,,,,,,,,,,,,,,,,,,,,,,,460.8464455501635,None,space,3.018262818157382,460.8464455501635,None,,,,,,,,,,,,,,,463.89824042827604,None,464.05062319876015,None,,,,,,,,,,,,,,,,,,,,,,,,,,,,,,,,,,,,,,,,,,,,,,,,,,,,,,APFRRF,01,AP,FR,RF,2022-07-05_19h38.05.393,DigitSpanTask_visual,2022.1.3,58.904526987012645,
0,2,,,,,,,7,6754102.0,0.15,2014576.0,0,0,0,0,,,,,0,0,0,0,,,,,,,,,,,,,0,9,9,9,1,0,1,0,,,,,,,,,,,,,,,,,,,,,,,,,,,,,,,,,,,,,,,,,,,,,,,,,465.0509134500935,465.0509134500935,,,,,,,,,,,,,,,,,,,,,,,,,,,,,,,,,,,,,,,,,,,,,,,,,,,,,,APFRRF,01,AP,FR,RF,2022-07-05_19h38.05.393,DigitSpanTask_visual,2022.1.3,58.904526987012645,
0,2,,,,,,,7,6754102.0,0.15,2014576.0,0,0,0,0,,,,,0,0,0,0,,,,,,,,,,,,,0,9,9,9,2,0,2,0,,,,,,,,,,,,,,,,,,,,,,,,,,,,,,,,,,,,,,,,,,,,,,,,,466.05097420992024,466.05097420992024,,,,,,,,,,,,,,,,,,,,,,,,,,,,,,,,,,,,,,,,,,,,,,,,,,,,,,APFRRF,01,AP,FR,RF,2022-07-05_19h38.05.393,DigitSpanTask_visual,2022.1.3,58.904526987012645,
0,2,,,,,,,7,6754102.0,0.15,2014576.0,0,0,0,0,,,,,0,0,0,0,,,,,,,,,,,,,0,9,9,9,3,0,3,0,,,,,,,,,,,,,,,,,,,,,,,,,,,,,,,,,,,,,,,,,,,,,,,,,467.0510136216981,467.0510136216981,,,,,,,,,,,,,,,,,,,,,,,,,,,,,,,,,,,,,,,,,,,,,,,,,,,,,,APFRRF,01,AP,FR,RF,2022-07-05_19h38.05.393,DigitSpanTask_visual,2022.1.3,58.904526987012645,
0,2,,,,,,,7,6754102.0,0.15,2014576.0,0,0,0,0,,,,,0,0,0,0,,,,,,,,,,,,,0,9,9,9,4,0,4,0,,,,,,,,,,,,,,,,,,,,,,,,,,,,,,,,,,,,,,,,,,,,,,,,,468.0511174881576,468.0511174881576,,,,,,,,,,,,,,,,,,,,,,,,,,,,,,,,,,,,,,,,,,,,,,,,,,,,,,APFRRF,01,AP,FR,RF,2022-07-05_19h38.05.393,DigitSpanTask_visual,2022.1.3,58.904526987012645,
0,2,,,,,,,7,6754102.0,0.15,2014576.0,0,0,0,0,,,,,0,0,0,0,,,,,,,,,,,,,0,9,9,9,5,0,5,0,,,,,,,,,,,,,,,,,,,,,,,,,,,,,,,,,,,,,,,,,,,,,,,,,469.0509216608807,469.0509216608807,,,,,,,,,,,,,,,,,,,,,,,,,,,,,,,,,,,,,,,,,,,,,,,,,,,,,,APFRRF,01,AP,FR,RF,2022-07-05_19h38.05.393,DigitSpanTask_visual,2022.1.3,58.904526987012645,
0,2,,,,,,,7,6754102.0,0.15,2014576.0,0,0,0,0,,,,,0,0,0,0,,,,,,,,,,,,,0,9,9,9,6,0,6,0,,,,,,,,,,,,,,,,,,,,,,,,,,,,,,,,,,,,,,,,,,,,,,,,,470.0518720595137,None,,,,,,,,,,,,,,,,,,,,,,,,,,,,,,,,,,,,,,,,,,,,,,,,,,,,,,APFRRF,01,AP,FR,RF,2022-07-05_19h38.05.393,DigitSpanTask_visual,2022.1.3,58.904526987012645,
0,2,,,,,,,7,6754102.0,0.15,2014576.0,0,0,0,0,,,,,0,0,0,0,,,,,,,,,,,,,0,9,9,9,,,,,,,,,,,,,,,,,,,,,,,,,,,,,,,,,,,,,,,,,0,,,,,,,,,,,,,,471.0524845842483,None,,471.0524845842483,None,472.0523996025986,None,,,,,,,,,,,,,,,,,,,,,,,,,,,,,,,,,,,,,,,,,,,,,,,APFRRF,01,AP,FR,RF,2022-07-05_19h38.05.393,DigitSpanTask_visual,2022.1.3,58.904526987012645,
0,2,,,,,,,8,30921867.0,0.95,76812903.0,0,0,0,0,,,,,0,0,0,0,,,,,,,,,,,,,0,10,10,10,0,0,0,0,,,,,,,,,,,,,,,,,,,,,,,,,,,473.5281506843712,None,space,2.449782799107197,473.5281506843712,None,,,,,,,,,,,,,,,476.00345386769186,None,476.9543595175346,None,,,,,,,,,,,,,,,,,,,,,,,,,,,,,,,,,,,,,,,,,,,,,,,,,,,,,,APFRRF,01,AP,FR,RF,2022-07-05_19h38.05.393,DigitSpanTask_visual,2022.1.3,58.904526987012645,
0,2,,,,,,,8,30921867.0,0.95,76812903.0,0,0,0,0,,,,,0,0,0,0,,,,,,,,,,,,,0,10,10,10,1,0,1,0,,,,,,,,,,,,,,,,,,,,,,,,,,,,,,,,,,,,,,,,,,,,,,,,,477.9532325869732,477.9532325869732,,,,,,,,,,,,,,,,,,,,,,,,,,,,,,,,,,,,,,,,,,,,,,,,,,,,,,APFRRF,01,AP,FR,RF,2022-07-05_19h38.05.393,DigitSpanTask_visual,2022.1.3,58.904526987012645,
0,2,,,,,,,8,30921867.0,0.95,76812903.0,0,0,0,0,,,,,0,0,0,0,,,,,,,,,,,,,0,10,10,10,2,0,2,0,,,,,,,,,,,,,,,,,,,,,,,,,,,,,,,,,,,,,,,,,,,,,,,,,478.9568264485897,None,,,,,,,,,,,,,,,,,,,,,,,,,,,,,,,,,,,,,,,,,,,,,,,,,,,,,,APFRRF,01,AP,FR,RF,2022-07-05_19h38.05.393,DigitSpanTask_visual,2022.1.3,58.904526987012645,
0,2,,,,,,,8,30921867.0,0.95,76812903.0,0,0,0,0,,,,,0,0,0,0,,,,,,,,,,,,,0,10,10,10,3,0,3,0,,,,,,,,,,,,,,,,,,,,,,,,,,,,,,,,,,,,,,,,,,,,,,,,,479.9556116626045,None,,,,,,,,,,,,,,,,,,,,,,,,,,,,,,,,,,,,,,,,,,,,,,,,,,,,,,APFRRF,01,AP,FR,RF,2022-07-05_19h38.05.393,DigitSpanTask_visual,2022.1.3,58.904526987012645,
0,2,,,,,,,8,30921867.0,0.95,76812903.0,0,0,0,0,,,,,0,0,0,0,,,,,,,,,,,,,0,10,10,10,4,0,4,0,,,,,,,,,,,,,,,,,,,,,,,,,,,,,,,,,,,,,,,,,,,,,,,,,480.9560427289398,None,,,,,,,,,,,,,,,,,,,,,,,,,,,,,,,,,,,,,,,,,,,,,,,,,,,,,,APFRRF,01,AP,FR,RF,2022-07-05_19h38.05.393,DigitSpanTask_visual,2022.1.3,58.904526987012645,
0,2,,,,,,,8,30921867.0,0.95,76812903.0,0,0,0,0,,,,,0,0,0,0,,,,,,,,,,,,,0,10,10,10,5,0,5,0,,,,,,,,,,,,,,,,,,,,,,,,,,,,,,,,,,,,,,,,,,,,,,,,,481.95807448826235,None,,,,,,,,,,,,,,,,,,,,,,,,,,,,,,,,,,,,,,,,,,,,,,,,,,,,,,APFRRF,01,AP,FR,RF,2022-07-05_19h38.05.393,DigitSpanTask_visual,2022.1.3,58.904526987012645,
0,2,,,,,,,8,30921867.0,0.95,76812903.0,0,0,0,0,,,,,0,0,0,0,,,,,,,,,,,,,0,10,10,10,6,0,6,0,,,,,,,,,,,,,,,,,,,,,,,,,,,,,,,,,,,,,,,,,,,,,,,,,482.9573605603073,None,,,,,,,,,,,,,,,,,,,,,,,,,,,,,,,,,,,,,,,,,,,,,,,,,,,,,,APFRRF,01,AP,FR,RF,2022-07-05_19h38.05.393,DigitSpanTask_visual,2022.1.3,58.904526987012645,
0,2,,,,,,,8,30921867.0,0.95,76812903.0,0,0,0,0,,,,,0,0,0,0,,,,,,,,,,,,,0,10,10,10,7,0,7,0,,,,,,,,,,,,,,,,,,,,,,,,,,,,,,,,,,,,,,,,,,,,,,,,,483.95849405949775,None,,,,,,,,,,,,,,,,,,,,,,,,,,,,,,,,,,,,,,,,,,,,,,,,,,,,,,APFRRF,01,AP,FR,RF,2022-07-05_19h38.05.393,DigitSpanTask_visual,2022.1.3,58.904526987012645,
0,2,,,,,,,8,30921867.0,0.95,76812903.0,0,0,0,0,,,,,0,0,0,0,,,,,,,,,,,,,0,10,10,10,,,,,,,,,,,,,,,,,,,,,,,,,,,,,,,,,,,,,,,,,0,,,,,,,,,,,,,,484.9574656583827,None,8,484.9574656583827,None,486.1946913154534,None,,,,,,,,,,,,,,,,,,,,,,,,,,,,,,,,,,,,,,,,,,,,,,,APFRRF,01,AP,FR,RF,2022-07-05_19h38.05.393,DigitSpanTask_visual,2022.1.3,58.904526987012645,
0,2,,,,,,,8,96528304.0,0.55,40382569.0,0,0,0,0,,,,,0,0,0,0,,,,,,,,,,,,,0,11,11,11,0,0,0,0,,,,,,,,,,,,,,,,,,,,,,,,,,,487.6698089349811,None,space,2.174172532337252,487.6698089349811,None,,,,,,,,,,,,,,,489.87341388115965,None,490.4323459861589,None,,,,,,,,,,,,,,,,,,,,,,,,,,,,,,,,,,,,,,,,,,,,,,,,,,,,,,APFRRF,01,AP,FR,RF,2022-07-05_19h38.05.393,DigitSpanTask_visual,2022.1.3,58.904526987012645,
0,2,,,,,,,8,96528304.0,0.55,40382569.0,0,0,0,0,,,,,0,0,0,0,,,,,,,,,,,,,0,11,11,11,1,0,1,0,,,,,,,,,,,,,,,,,,,,,,,,,,,,,,,,,,,,,,,,,,,,,,,,,491.43298560649055,491.43298560649055,,,,,,,,,,,,,,,,,,,,,,,,,,,,,,,,,,,,,,,,,,,,,,,,,,,,,,APFRRF,01,AP,FR,RF,2022-07-05_19h38.05.393,DigitSpanTask_visual,2022.1.3,58.904526987012645,
0,2,,,,,,,8,96528304.0,0.55,40382569.0,0,0,0,0,,,,,0,0,0,0,,,,,,,,,,,,,0,11,11,11,2,0,2,0,,,,,,,,,,,,,,,,,,,,,,,,,,,,,,,,,,,,,,,,,,,,,,,,,492.43622804640836,492.43622804640836,,,,,,,,,,,,,,,,,,,,,,,,,,,,,,,,,,,,,,,,,,,,,,,,,,,,,,APFRRF,01,AP,FR,RF,2022-07-05_19h38.05.393,DigitSpanTask_visual,2022.1.3,58.904526987012645,
0,2,,,,,,,8,96528304.0,0.55,40382569.0,0,0,0,0,,,,,0,0,0,0,,,,,,,,,,,,,0,11,11,11,3,0,3,0,,,,,,,,,,,,,,,,,,,,,,,,,,,,,,,,,,,,,,,,,,,,,,,,,493.4351253376699,None,,,,,,,,,,,,,,,,,,,,,,,,,,,,,,,,,,,,,,,,,,,,,,,,,,,,,,APFRRF,01,AP,FR,RF,2022-07-05_19h38.05.393,DigitSpanTask_visual,2022.1.3,58.904526987012645,
0,2,,,,,,,8,96528304.0,0.55,40382569.0,0,0,0,0,,,,,0,0,0,0,,,,,,,,,,,,,0,11,11,11,4,0,4,0,,,,,,,,,,,,,,,,,,,,,,,,,,,,,,,,,,,,,,,,,,,,,,,,,494.43398198553405,None,,,,,,,,,,,,,,,,,,,,,,,,,,,,,,,,,,,,,,,,,,,,,,,,,,,,,,APFRRF,01,AP,FR,RF,2022-07-05_19h38.05.393,DigitSpanTask_visual,2022.1.3,58.904526987012645,
0,2,,,,,,,8,96528304.0,0.55,40382569.0,0,0,0,0,,,,,0,0,0,0,,,,,,,,,,,,,0,11,11,11,5,0,5,0,,,,,,,,,,,,,,,,,,,,,,,,,,,,,,,,,,,,,,,,,,,,,,,,,495.43661395341405,None,,,,,,,,,,,,,,,,,,,,,,,,,,,,,,,,,,,,,,,,,,,,,,,,,,,,,,APFRRF,01,AP,FR,RF,2022-07-05_19h38.05.393,DigitSpanTask_visual,2022.1.3,58.904526987012645,
0,2,,,,,,,8,96528304.0,0.55,40382569.0,0,0,0,0,,,,,0,0,0,0,,,,,,,,,,,,,0,11,11,11,6,0,6,0,,,,,,,,,,,,,,,,,,,,,,,,,,,,,,,,,,,,,,,,,,,,,,,,,496.4355215081596,None,,,,,,,,,,,,,,,,,,,,,,,,,,,,,,,,,,,,,,,,,,,,,,,,,,,,,,APFRRF,01,AP,FR,RF,2022-07-05_19h38.05.393,DigitSpanTask_visual,2022.1.3,58.904526987012645,
0,2,,,,,,,8,96528304.0,0.55,40382569.0,0,0,0,0,,,,,0,0,0,0,,,,,,,,,,,,,0,11,11,11,7,0,7,0,,,,,,,,,,,,,,,,,,,,,,,,,,,,,,,,,,,,,,,,,,,,,,,,,497.4344401474664,None,,,,,,,,,,,,,,,,,,,,,,,,,,,,,,,,,,,,,,,,,,,,,,,,,,,,,,APFRRF,01,AP,FR,RF,2022-07-05_19h38.05.393,DigitSpanTask_visual,2022.1.3,58.904526987012645,
0,2,,,,,,,8,96528304.0,0.55,40382569.0,0,0,0,0,,,,,0,0,0,0,,,,,,,,,,,,,0,11,11,11,,,,,,,,,,,,,,,,,,,,,,,,,,,,,,,,,,,,,,,,,0,,,,,,,,,,,,,,498.43487080326304,None,4382569,498.43487080326304,None,523.1056375265835,None,,,,,,,,,,,,,,,,,,,,,,,,,,,,,,,,,,,,,,,,,,,,,,,APFRRF,01,AP,FR,RF,2022-07-05_19h38.05.393,DigitSpanTask_visual,2022.1.3,58.904526987012645,
0,2,,,,,,,9,305679148.0,0.35,841976503.0,0,0,0,0,,,,,0,0,0,0,,,,,,,,,,,,,0,12,12,12,0,0,0,0,,,,,,,,,,,,,,,,,,,,,,,,,,,524.5799061507023,None,space,2.358952606398816,524.5799061507023,None,,,,,,,,,,,,,,,526.9701472194174,None,527.3260138269688,None,,,,,,,,,,,,,,,,,,,,,,,,,,,,,,,,,,,,,,,,,,,,,,,,,,,,,,APFRRF,01,AP,FR,RF,2022-07-05_19h38.05.393,DigitSpanTask_visual,2022.1.3,58.904526987012645,
0,2,,,,,,,9,305679148.0,0.35,841976503.0,0,0,0,0,,,,,0,0,0,0,,,,,,,,,,,,,0,12,12,12,1,0,1,0,,,,,,,,,,,,,,,,,,,,,,,,,,,,,,,,,,,,,,,,,,,,,,,,,528.3262375709237,528.3262375709237,,,,,,,,,,,,,,,,,,,,,,,,,,,,,,,,,,,,,,,,,,,,,,,,,,,,,,APFRRF,01,AP,FR,RF,2022-07-05_19h38.05.393,DigitSpanTask_visual,2022.1.3,58.904526987012645,
0,2,,,,,,,9,305679148.0,0.35,841976503.0,0,0,0,0,,,,,0,0,0,0,,,,,,,,,,,,,0,12,12,12,2,0,2,0,,,,,,,,,,,,,,,,,,,,,,,,,,,,,,,,,,,,,,,,,,,,,,,,,529.3265450649087,529.3265450649087,,,,,,,,,,,,,,,,,,,,,,,,,,,,,,,,,,,,,,,,,,,,,,,,,,,,,,APFRRF,01,AP,FR,RF,2022-07-05_19h38.05.393,DigitSpanTask_visual,2022.1.3,58.904526987012645,
0,2,,,,,,,9,305679148.0,0.35,841976503.0,0,0,0,0,,,,,0,0,0,0,,,,,,,,,,,,,0,12,12,12,3,0,3,0,,,,,,,,,,,,,,,,,,,,,,,,,,,,,,,,,,,,,,,,,,,,,,,,,530.3276173937338,None,,,,,,,,,,,,,,,,,,,,,,,,,,,,,,,,,,,,,,,,,,,,,,,,,,,,,,APFRRF,01,AP,FR,RF,2022-07-05_19h38.05.393,DigitSpanTask_visual,2022.1.3,58.904526987012645,
0,2,,,,,,,9,305679148.0,0.35,841976503.0,0,0,0,0,,,,,0,0,0,0,,,,,,,,,,,,,0,12,12,12,4,0,4,0,,,,,,,,,,,,,,,,,,,,,,,,,,,,,,,,,,,,,,,,,,,,,,,,,531.3278780862311,None,,,,,,,,,,,,,,,,,,,,,,,,,,,,,,,,,,,,,,,,,,,,,,,,,,,,,,APFRRF,01,AP,FR,RF,2022-07-05_19h38.05.393,DigitSpanTask_visual,2022.1.3,58.904526987012645,
0,2,,,,,,,9,305679148.0,0.35,841976503.0,0,0,0,0,,,,,0,0,0,0,,,,,,,,,,,,,0,12,12,12,5,0,5,0,,,,,,,,,,,,,,,,,,,,,,,,,,,,,,,,,,,,,,,,,,,,,,,,,532.3277733986943,None,,,,,,,,,,,,,,,,,,,,,,,,,,,,,,,,,,,,,,,,,,,,,,,,,,,,,,APFRRF,01,AP,FR,RF,2022-07-05_19h38.05.393,DigitSpanTask_visual,2022.1.3,58.904526987012645,
0,2,,,,,,,9,305679148.0,0.35,841976503.0,0,0,0,0,,,,,0,0,0,0,,,,,,,,,,,,,0,12,12,12,6,0,6,0,,,,,,,,,,,,,,,,,,,,,,,,,,,,,,,,,,,,,,,,,,,,,,,,,533.328275077798,None,,,,,,,,,,,,,,,,,,,,,,,,,,,,,,,,,,,,,,,,,,,,,,,,,,,,,,APFRRF,01,AP,FR,RF,2022-07-05_19h38.05.393,DigitSpanTask_visual,2022.1.3,58.904526987012645,
0,2,,,,,,,9,305679148.0,0.35,841976503.0,0,0,0,0,,,,,0,0,0,0,,,,,,,,,,,,,0,12,12,12,7,0,7,0,,,,,,,,,,,,,,,,,,,,,,,,,,,,,,,,,,,,,,,,,,,,,,,,,534.3288605069356,None,,,,,,,,,,,,,,,,,,,,,,,,,,,,,,,,,,,,,,,,,,,,,,,,,,,,,,APFRRF,01,AP,FR,RF,2022-07-05_19h38.05.393,DigitSpanTask_visual,2022.1.3,58.904526987012645,
0,2,,,,,,,9,305679148.0,0.35,841976503.0,0,0,0,0,,,,,0,0,0,0,,,,,,,,,,,,,0,12,12,12,8,0,8,0,,,,,,,,,,,,,,,,,,,,,,,,,,,,,,,,,,,,,,,,,,,,,,,,,535.3288235583932,None,,,,,,,,,,,,,,,,,,,,,,,,,,,,,,,,,,,,,,,,,,,,,,,,,,,,,,APFRRF,01,AP,FR,RF,2022-07-05_19h38.05.393,DigitSpanTask_visual,2022.1.3,58.904526987012645,
0,2,,,,,,,9,305679148.0,0.35,841976503.0,0,0,0,0,,,,,0,0,0,0,,,,,,,,,,,,,0,12,12,12,,,,,,,,,,,,,,,,,,,,,,,,,,,,,,,,,,,,,,,,,0,,,,,,,,,,,,,,536.329461126028,None,9,536.329461126028,None,537.9912793227741,None,,,,,,,,,,,,,,,,,,,,,,,,,,,,,,,,,,,,,,,,,,,,,,,APFRRF,01,AP,FR,RF,2022-07-05_19h38.05.393,DigitSpanTask_visual,2022.1.3,58.904526987012645,
0,2,,,,,,,9,805734129.0,0.15,921437508.0,0,0,0,0,,,,,0,0,0,0,,,,,,,,,,,,,0,13,13,13,0,0,0,0,,,,,,,,,,,,,,,,,,,,,,,,,,,539.4662261579288,None,space,2.401087903752341,539.4662261579288,None,,,,,,,,,,,,,,,541.893434654452,None,542.0430729692671,None,,,,,,,,,,,,,,,,,,,,,,,,,,,,,,,,,,,,,,,,,,,,,,,,,,,,,,APFRRF,01,AP,FR,RF,2022-07-05_19h38.05.393,DigitSpanTask_visual,2022.1.3,58.904526987012645,
0,2,,,,,,,9,805734129.0,0.15,921437508.0,0,0,0,0,,,,,0,0,0,0,,,,,,,,,,,,,0,13,13,13,1,0,1,0,,,,,,,,,,,,,,,,,,,,,,,,,,,,,,,,,,,,,,,,,,,,,,,,,543.0443776633765,None,,,,,,,,,,,,,,,,,,,,,,,,,,,,,,,,,,,,,,,,,,,,,,,,,,,,,,APFRRF,01,AP,FR,RF,2022-07-05_19h38.05.393,DigitSpanTask_visual,2022.1.3,58.904526987012645,
0,2,,,,,,,9,805734129.0,0.15,921437508.0,0,0,0,0,,,,,0,0,0,0,,,,,,,,,,,,,0,13,13,13,2,0,2,0,,,,,,,,,,,,,,,,,,,,,,,,,,,,,,,,,,,,,,,,,,,,,,,,,544.0453079455801,None,,,,,,,,,,,,,,,,,,,,,,,,,,,,,,,,,,,,,,,,,,,,,,,,,,,,,,APFRRF,01,AP,FR,RF,2022-07-05_19h38.05.393,DigitSpanTask_visual,2022.1.3,58.904526987012645,
0,2,,,,,,,9,805734129.0,0.15,921437508.0,0,0,0,0,,,,,0,0,0,0,,,,,,,,,,,,,0,13,13,13,3,0,3,0,,,,,,,,,,,,,,,,,,,,,,,,,,,,,,,,,,,,,,,,,,,,,,,,,545.0443452307663,None,,,,,,,,,,,,,,,,,,,,,,,,,,,,,,,,,,,,,,,,,,,,,,,,,,,,,,APFRRF,01,AP,FR,RF,2022-07-05_19h38.05.393,DigitSpanTask_visual,2022.1.3,58.904526987012645,
0,2,,,,,,,9,805734129.0,0.15,921437508.0,0,0,0,0,,,,,0,0,0,0,,,,,,,,,,,,,0,13,13,13,4,0,4,0,,,,,,,,,,,,,,,,,,,,,,,,,,,,,,,,,,,,,,,,,,,,,,,,,546.0468630687028,None,,,,,,,,,,,,,,,,,,,,,,,,,,,,,,,,,,,,,,,,,,,,,,,,,,,,,,APFRRF,01,AP,FR,RF,2022-07-05_19h38.05.393,DigitSpanTask_visual,2022.1.3,58.904526987012645,
0,2,,,,,,,9,805734129.0,0.15,921437508.0,0,0,0,0,,,,,0,0,0,0,,,,,,,,,,,,,0,13,13,13,5,0,5,0,,,,,,,,,,,,,,,,,,,,,,,,,,,,,,,,,,,,,,,,,,,,,,,,,547.0462021003223,None,,,,,,,,,,,,,,,,,,,,,,,,,,,,,,,,,,,,,,,,,,,,,,,,,,,,,,APFRRF,01,AP,FR,RF,2022-07-05_19h38.05.393,DigitSpanTask_visual,2022.1.3,58.904526987012645,
0,2,,,,,,,9,805734129.0,0.15,921437508.0,0,0,0,0,,,,,0,0,0,0,,,,,,,,,,,,,0,13,13,13,6,0,6,0,,,,,,,,,,,,,,,,,,,,,,,,,,,,,,,,,,,,,,,,,,,,,,,,,548.0460670328685,None,,,,,,,,,,,,,,,,,,,,,,,,,,,,,,,,,,,,,,,,,,,,,,,,,,,,,,APFRRF,01,AP,FR,RF,2022-07-05_19h38.05.393,DigitSpanTask_visual,2022.1.3,58.904526987012645,
0,2,,,,,,,9,805734129.0,0.15,921437508.0,0,0,0,0,,,,,0,0,0,0,,,,,,,,,,,,,0,13,13,13,7,0,7,0,,,,,,,,,,,,,,,,,,,,,,,,,,,,,,,,,,,,,,,,,,,,,,,,,549.0489096074452,None,,,,,,,,,,,,,,,,,,,,,,,,,,,,,,,,,,,,,,,,,,,,,,,,,,,,,,APFRRF,01,AP,FR,RF,2022-07-05_19h38.05.393,DigitSpanTask_visual,2022.1.3,58.904526987012645,
0,2,,,,,,,9,805734129.0,0.15,921437508.0,0,0,0,0,,,,,0,0,0,0,,,,,,,,,,,,,0,13,13,13,8,0,8,0,,,,,,,,,,,,,,,,,,,,,,,,,,,,,,,,,,,,,,,,,,,,,,,,,550.0461996370832,None,,,,,,,,,,,,,,,,,,,,,,,,,,,,,,,,,,,,,,,,,,,,,,,,,,,,,,APFRRF,01,AP,FR,RF,2022-07-05_19h38.05.393,DigitSpanTask_visual,2022.1.3,58.904526987012645,
0,2,,,,,,,9,805734129.0,0.15,921437508.0,0,0,0,0,,,,,0,0,0,0,,,,,,,,,,,,,0,13,13,13,,,,,,,,,,,,,,,,,,,,,,,,,,,,,,,,,,,,,,,,,0,,,,,,,,,,,,,,551.0463388099306,None,9,551.0463388099306,None,552.2334536213675,None,,,,,,,,,,,,,,,,,,,,,,,,,,,,,,,,,,,,,,,,,,,,,,,APFRRF,01,AP,FR,RF,2022-07-05_19h38.05.393,DigitSpanTask_visual,2022.1.3,58.904526987012645,
0,2,datasets/instruccion1_pasiva.png,datasets/instruccion1_activa.png,,,,,,,,,0,0,0,0,,,,,1,0,1,0,0,0,0,0,,,,,,,,,,,,,,,,,,,,,,,,,,,,,,,,,,,,,,,,,,,,,,,,,,,,,,,,,,,,,,,,,,,,,,,,,,553.3014044551746,None,2.953125,6.894801750539045,553.3014044551746,None,space,20.988341066960857,560.4403568408197,None,,,,,,,,,,,,,,,,,,,,,,,,,,,,,,,,,,,,,APFRRF,01,AP,FR,RF,2022-07-05_19h38.05.393,DigitSpanTask_visual,2022.1.3,58.904526987012645,
0,2,datasets/instruccion2.png,datasets/instruccion2.png,,,,,,,,,0,0,0,0,,,,,1,0,1,0,0,1,1,1,,,,,,,,,,,,,,,,,,,,,,,,,,,,,,,,,,,,,,,,,,,,,,,,,,,,,,,,,,,,,,,,,,,,,,,,,,,,,,,,,,,,,,,,,,,,,,,,,,,,,,,,,,,,,,,,,,,,,,,,APFRRF,01,AP,FR,RF,2022-07-05_19h38.05.393,DigitSpanTask_visual,2022.1.3,58.904526987012645,
0,2,datasets/instruccion3.png,datasets/instruccion3.png,,,,,,,,,0,0,0,0,,,,,1,0,1,0,0,2,2,2,,,,,,,,,,,,,,,,,,,,,,,,,,,,,,,,,,,,,,,,,,,,,,,,,,,,,,,,,,,,,,,,,,,,,,,,,,,,,,,,,,,,,,,,,,,,,,,,,,,,,,,,,,,,,,,,,,,,,,,,APFRRF,01,AP,FR,RF,2022-07-05_19h38.05.393,DigitSpanTask_visual,2022.1.3,58.904526987012645,
0,2,,,2,91,0.55,19,,,,,0,0,0,0,,,,,1,0,1,0,,,,,0,0,0,0,0,0,0,0,,,,,,,,,,,,,,,,,,,,,,,,,,,,,,,,,,,587.6335562562126,None,space,3.618511194472376,587.6335562562126,None,591.2805740982512,None,591.8396338809944,None,,,,,,,,,,,,,,,,,,,,,,,,,,,,,,,,,,,,,,,,,,,,,,,,,,,,,,,,,,,,,,,,,,,,APFRRF,01,AP,FR,RF,2022-07-05_19h38.05.393,DigitSpanTask_visual,2022.1.3,58.904526987012645,
0,2,,,2,91,0.55,19,,,,,0,0,0,0,,,,,1,0,1,0,,,,,0,0,0,0,1,0,1,0,,,,,,,,,,,,,,,,,,,,,,,,,,,,,,,,,,,,,,,,,,,592.8397471898606,592.8397471898606,,,,,,,,,,,,,,,,,,,,,,,,,,,,,,,,,,,,,,,,,,,,,,,,,,,,,,,,,,,,,,,,,,,,APFRRF,01,AP,FR,RF,2022-07-05_19h38.05.393,DigitSpanTask_visual,2022.1.3,58.904526987012645,
0,2,,,2,91,0.55,19,,,,,0,0,0,0,,,,,1,0,1,0,,,,,0,0,0,0,,,,,,,,,,,,,,,,,,,,,,,,,,,,,,,,,,,,,,,,,,,,,,,,,1,593.8400271777064,None,19,593.8400271777064,None,595.1959504396909,None,,,,,,,,,,,,,,,,,,,,,,,,,,,,,,,,,,,,,,,,,,,,,,,,,,,,,,,,,,,,APFRRF,01,AP,FR,RF,2022-07-05_19h38.05.393,DigitSpanTask_visual,2022.1.3,58.904526987012645,
0,2,,,2,47,0.55,74,,,,,0,0,0,0,,,,,1,0,1,0,,,,,0,1,1,1,0,0,0,0,,,,,,,,,,,,,,,,,,,,,,,,,,,,,,,,,,,596.6712872872376,None,space,0.46492472256795736,596.6712872872376,None,597.162477522972,None,597.7249386243675,None,,,,,,,,,,,,,,,,,,,,,,,,,,,,,,,,,,,,,,,,,,,,,,,,,,,,,,,,,,,,,,,,,,,,APFRRF,01,AP,FR,RF,2022-07-05_19h38.05.393,DigitSpanTask_visual,2022.1.3,58.904526987012645,
0,2,,,2,47,0.55,74,,,,,0,0,0,0,,,,,1,0,1,0,,,,,0,1,1,1,1,0,1,0,,,,,,,,,,,,,,,,,,,,,,,,,,,,,,,,,,,,,,,,,,,598.7394499593574,None,,,,,,,,,,,,,,,,,,,,,,,,,,,,,,,,,,,,,,,,,,,,,,,,,,,,,,,,,,,,,,,,,,,,APFRRF,01,AP,FR,RF,2022-07-05_19h38.05.393,DigitSpanTask_visual,2022.1.3,58.904526987012645,
0,2,,,2,47,0.55,74,,,,,0,0,0,0,,,,,1,0,1,0,,,,,0,1,1,1,,,,,,,,,,,,,,,,,,,,,,,,,,,,,,,,,,,,,,,,,,,,,,,,,1,599.7402258787624,None,74,599.7402258787624,None,600.9941522772642,None,,,,,,,,,,,,,,,,,,,,,,,,,,,,,,,,,,,,,,,,,,,,,,,,,,,,,,,,,,,,APFRRF,01,AP,FR,RF,2022-07-05_19h38.05.393,DigitSpanTask_visual,2022.1.3,58.904526987012645,
0,2,,,,,,,3,385.0,0.55,583.0,0,0,0,0,,,,,1,0,1,0,,,,,,,,,,,,,0,0,0,0,0,0,0,0,,,,,,,,,,,,,,,,,,,,,,,,,,,603.181377934332,None,space,1.1971721792724566,603.181377934332,None,,,,,,,,,,,,,602.0114536377914,None,604.4020773291959,None,604.9615821366133,None,,,,,,,,,,,,,,,,,,,,,,,,,,,,,,,,,,,,,,,,,,,,,,,,,,,,,,APFRRF,01,AP,FR,RF,2022-07-05_19h38.05.393,DigitSpanTask_visual,2022.1.3,58.904526987012645,
0,2,,,,,,,3,385.0,0.55,583.0,0,0,0,0,,,,,1,0,1,0,,,,,,,,,,,,,0,0,0,0,1,0,1,0,,,,,,,,,,,,,,,,,,,,,,,,,,,,,,,,,,,,,,,,,,,,,,,,,605.9643072969266,None,,,,,,,,,,,,,,,,,,,,,,,,,,,,,,,,,,,,,,,,,,,,,,,,,,,,,,APFRRF,01,AP,FR,RF,2022-07-05_19h38.05.393,DigitSpanTask_visual,2022.1.3,58.904526987012645,
0,2,,,,,,,3,385.0,0.55,583.0,0,0,0,0,,,,,1,0,1,0,,,,,,,,,,,,,0,0,0,0,2,0,2,0,,,,,,,,,,,,,,,,,,,,,,,,,,,,,,,,,,,,,,,,,,,,,,,,,606.9803663653329,None,,,,,,,,,,,,,,,,,,,,,,,,,,,,,,,,,,,,,,,,,,,,,,,,,,,,,,APFRRF,01,AP,FR,RF,2022-07-05_19h38.05.393,DigitSpanTask_visual,2022.1.3,58.904526987012645,
0,2,,,,,,,3,385.0,0.55,583.0,0,0,0,0,,,,,1,0,1,0,,,,,,,,,,,,,0,0,0,0,,,,,,,,,,,,,,,,,,,,,,,,,,,,,,,,,,,,,,,,,0,,,,,,,,,,,,,,607.9791392631669,None,,607.9791392631669,None,609.8611206903661,None,,,,,,,,,,,,,,,,,,,,,,,,,,,,,,,,,,,,,,,,,,,,,,,APFRRF,01,AP,FR,RF,2022-07-05_19h38.05.393,DigitSpanTask_visual,2022.1.3,58.904526987012645,
0,2,,,,,,,3,294.0,0.55,492.0,0,0,0,0,,,,,1,0,1,0,,,,,,,,,,,,,0,1,1,1,0,0,0,0,,,,,,,,,,,,,,,,,,,,,,,,,,,611.3359398477733,None,space,1.5808749980387802,611.3359398477733,None,,,,,,,,,,,,,,,612.9462333013144,None,613.5055574714061,None,,,,,,,,,,,,,,,,,,,,,,,,,,,,,,,,,,,,,,,,,,,,,,,,,,,,,,APFRRF,01,AP,FR,RF,2022-07-05_19h38.05.393,DigitSpanTask_visual,2022.1.3,58.904526987012645,
0,2,,,,,,,3,294.0,0.55,492.0,0,0,0,0,,,,,1,0,1,0,,,,,,,,,,,,,0,1,1,1,1,0,1,0,,,,,,,,,,,,,,,,,,,,,,,,,,,,,,,,,,,,,,,,,,,,,,,,,614.5057828575191,614.5057828575191,,,,,,,,,,,,,,,,,,,,,,,,,,,,,,,,,,,,,,,,,,,,,,,,,,,,,,APFRRF,01,AP,FR,RF,2022-07-05_19h38.05.393,DigitSpanTask_visual,2022.1.3,58.904526987012645,
0,2,,,,,,,3,294.0,0.55,492.0,0,0,0,0,,,,,1,0,1,0,,,,,,,,,,,,,0,1,1,1,2,0,2,0,,,,,,,,,,,,,,,,,,,,,,,,,,,,,,,,,,,,,,,,,,,,,,,,,615.5062443037677,615.5062443037677,,,,,,,,,,,,,,,,,,,,,,,,,,,,,,,,,,,,,,,,,,,,,,,,,,,,,,APFRRF,01,AP,FR,RF,2022-07-05_19h38.05.393,DigitSpanTask_visual,2022.1.3,58.904526987012645,
0,2,,,,,,,3,294.0,0.55,492.0,0,0,0,0,,,,,1,0,1,0,,,,,,,,,,,,,0,1,1,1,,,,,,,,,,,,,,,,,,,,,,,,,,,,,,,,,,,,,,,,,1,,,,,,,,,,,,,,616.5064425942801,None,492,616.5064425942801,None,619.65997610661,None,,,,,,,,,,,,,,,,,,,,,,,,,,,,,,,,,,,,,,,,,,,,,,,APFRRF,01,AP,FR,RF,2022-07-05_19h38.05.393,DigitSpanTask_visual,2022.1.3,58.904526987012645,
0,2,,,,,,,4,1358.0,0.55,8531.0,0,0,0,0,,,,,1,0,1,0,,,,,,,,,,,,,0,2,2,2,0,0,0,0,,,,,,,,,,,,,,,,,,,,,,,,,,,621.1350653989211,None,space,2.4404110064460838,621.1350653989211,None,,,,,,,,,,,,,,,623.5966142818434,None,624.1525145536216,None,,,,,,,,,,,,,,,,,,,,,,,,,,,,,,,,,,,,,,,,,,,,,,,,,,,,,,APFRRF,01,AP,FR,RF,2022-07-05_19h38.05.393,DigitSpanTask_visual,2022.1.3,58.904526987012645,
0,2,,,,,,,4,1358.0,0.55,8531.0,0,0,0,0,,,,,1,0,1,0,,,,,,,,,,,,,0,2,2,2,1,0,1,0,,,,,,,,,,,,,,,,,,,,,,,,,,,,,,,,,,,,,,,,,,,,,,,,,625.1525371332864,625.1525371332864,,,,,,,,,,,,,,,,,,,,,,,,,,,,,,,,,,,,,,,,,,,,,,,,,,,,,,APFRRF,01,AP,FR,RF,2022-07-05_19h38.05.393,DigitSpanTask_visual,2022.1.3,58.904526987012645,
0,2,,,,,,,4,1358.0,0.55,8531.0,0,0,0,0,,,,,1,0,1,0,,,,,,,,,,,,,0,2,2,2,2,0,2,0,,,,,,,,,,,,,,,,,,,,,,,,,,,,,,,,,,,,,,,,,,,,,,,,,626.1526680953466,626.1526680953466,,,,,,,,,,,,,,,,,,,,,,,,,,,,,,,,,,,,,,,,,,,,,,,,,,,,,,APFRRF,01,AP,FR,RF,2022-07-05_19h38.05.393,DigitSpanTask_visual,2022.1.3,58.904526987012645,
0,2,,,,,,,4,1358.0,0.55,8531.0,0,0,0,0,,,,,1,0,1,0,,,,,,,,,,,,,0,2,2,2,3,0,3,0,,,,,,,,,,,,,,,,,,,,,,,,,,,,,,,,,,,,,,,,,,,,,,,,,627.1528450378137,627.1528450378137,,,,,,,,,,,,,,,,,,,,,,,,,,,,,,,,,,,,,,,,,,,,,,,,,,,,,,APFRRF,01,AP,FR,RF,2022-07-05_19h38.05.393,DigitSpanTask_visual,2022.1.3,58.904526987012645,
0,2,,,,,,,4,1358.0,0.55,8531.0,0,0,0,0,,,,,1,0,1,0,,,,,,,,,,,,,0,2,2,2,,,,,,,,,,,,,,,,,,,,,,,,,,,,,,,,,,,,,,,,,0,,,,,,,,,,,,,,628.1533241783069,None,,628.1533241783069,None,628.1530408650906,None,,,,,,,,,,,,,,,,,,,,,,,,,,,,,,,,,,,,,,,,,,,,,,,APFRRF,01,AP,FR,RF,2022-07-05_19h38.05.393,DigitSpanTask_visual,2022.1.3,58.904526987012645,
0,2,,,,,,,4,2047.0,0.55,7402.0,0,0,0,0,,,,,1,0,1,0,,,,,,,,,,,,,0,3,3,3,0,0,0,0,,,,,,,,,,,,,,,,,,,,,,,,,,,629.6282927309912,None,space,2.635219325613434,629.6282927309912,None,,,,,,,,,,,,,,,632.2907107257524,None,632.8501469730945,None,,,,,,,,,,,,,,,,,,,,,,,,,,,,,,,,,,,,,,,,,,,,,,,,,,,,,,APFRRF,01,AP,FR,RF,2022-07-05_19h38.05.393,DigitSpanTask_visual,2022.1.3,58.904526987012645,
0,2,,,,,,,4,2047.0,0.55,7402.0,0,0,0,0,,,,,1,0,1,0,,,,,,,,,,,,,0,3,3,3,1,0,1,0,,,,,,,,,,,,,,,,,,,,,,,,,,,,,,,,,,,,,,,,,,,,,,,,,633.8513748963414,633.8513748963414,,,,,,,,,,,,,,,,,,,,,,,,,,,,,,,,,,,,,,,,,,,,,,,,,,,,,,APFRRF,01,AP,FR,RF,2022-07-05_19h38.05.393,DigitSpanTask_visual,2022.1.3,58.904526987012645,
0,2,,,,,,,4,2047.0,0.55,7402.0,0,0,0,0,,,,,1,0,1,0,,,,,,,,,,,,,0,3,3,3,2,0,2,0,,,,,,,,,,,,,,,,,,,,,,,,,,,,,,,,,,,,,,,,,,,,,,,,,634.8506190933658,634.8506190933658,,,,,,,,,,,,,,,,,,,,,,,,,,,,,,,,,,,,,,,,,,,,,,,,,,,,,,APFRRF,01,AP,FR,RF,2022-07-05_19h38.05.393,DigitSpanTask_visual,2022.1.3,58.904526987012645,
0,2,,,,,,,4,2047.0,0.55,7402.0,0,0,0,0,,,,,1,0,1,0,,,,,,,,,,,,,0,3,3,3,3,0,3,0,,,,,,,,,,,,,,,,,,,,,,,,,,,,,,,,,,,,,,,,,,,,,,,,,635.8510788974563,635.8510788974563,,,,,,,,,,,,,,,,,,,,,,,,,,,,,,,,,,,,,,,,,,,,,,,,,,,,,,APFRRF,01,AP,FR,RF,2022-07-05_19h38.05.393,DigitSpanTask_visual,2022.1.3,58.904526987012645,
0,2,,,,,,,4,2047.0,0.55,7402.0,0,0,0,0,,,,,1,0,1,0,,,,,,,,,,,,,0,3,3,3,,,,,,,,,,,,,,,,,,,,,,,,,,,,,,,,,,,,,,,,,0,,,,,,,,,,,,,,636.8510961811659,None,,636.8510961811659,None,636.8546830225569,None,,,,,,,,,,,,,,,,,,,,,,,,,,,,,,,,,,,,,,,,,,,,,,,APFRRF,01,AP,FR,RF,2022-07-05_19h38.05.393,DigitSpanTask_visual,2022.1.3,58.904526987012645,
0,2,,,,,,,5,15396.0,0.55,69351.0,0,0,0,0,,,,,1,0,1,0,,,,,,,,,,,,,0,4,4,4,0,0,0,0,,,,,,,,,,,,,,,,,,,,,,,,,,,638.3428874054734,None,space,0.9408318092973786,638.3428874054734,None,,,,,,,,,,,,,,,639.3095454508148,None,639.8686856992717,None,,,,,,,,,,,,,,,,,,,,,,,,,,,,,,,,,,,,,,,,,,,,,,,,,,,,,,APFRRF,01,AP,FR,RF,2022-07-05_19h38.05.393,DigitSpanTask_visual,2022.1.3,58.904526987012645,
0,2,,,,,,,5,15396.0,0.55,69351.0,0,0,0,0,,,,,1,0,1,0,,,,,,,,,,,,,0,4,4,4,1,0,1,0,,,,,,,,,,,,,,,,,,,,,,,,,,,,,,,,,,,,,,,,,,,,,,,,,640.8691996945599,640.8691996945599,,,,,,,,,,,,,,,,,,,,,,,,,,,,,,,,,,,,,,,,,,,,,,,,,,,,,,APFRRF,01,AP,FR,RF,2022-07-05_19h38.05.393,DigitSpanTask_visual,2022.1.3,58.904526987012645,
0,2,,,,,,,5,15396.0,0.55,69351.0,0,0,0,0,,,,,1,0,1,0,,,,,,,,,,,,,0,4,4,4,2,0,2,0,,,,,,,,,,,,,,,,,,,,,,,,,,,,,,,,,,,,,,,,,,,,,,,,,641.8697227217126,None,,,,,,,,,,,,,,,,,,,,,,,,,,,,,,,,,,,,,,,,,,,,,,,,,,,,,,APFRRF,01,AP,FR,RF,2022-07-05_19h38.05.393,DigitSpanTask_visual,2022.1.3,58.904526987012645,
0,2,,,,,,,5,15396.0,0.55,69351.0,0,0,0,0,,,,,1,0,1,0,,,,,,,,,,,,,0,4,4,4,3,0,3,0,,,,,,,,,,,,,,,,,,,,,,,,,,,,,,,,,,,,,,,,,,,,,,,,,642.86997191911,None,,,,,,,,,,,,,,,,,,,,,,,,,,,,,,,,,,,,,,,,,,,,,,,,,,,,,,APFRRF,01,AP,FR,RF,2022-07-05_19h38.05.393,DigitSpanTask_visual,2022.1.3,58.904526987012645,
0,2,,,,,,,5,15396.0,0.55,69351.0,0,0,0,0,,,,,1,0,1,0,,,,,,,,,,,,,0,4,4,4,4,0,4,0,,,,,,,,,,,,,,,,,,,,,,,,,,,,,,,,,,,,,,,,,,,,,,,,,643.8704933041045,None,,,,,,,,,,,,,,,,,,,,,,,,,,,,,,,,,,,,,,,,,,,,,,,,,,,,,,APFRRF,01,AP,FR,RF,2022-07-05_19h38.05.393,DigitSpanTask_visual,2022.1.3,58.904526987012645,
0,2,,,,,,,5,15396.0,0.55,69351.0,0,0,0,0,,,,,1,0,1,0,,,,,,,,,,,,,0,4,4,4,,,,,,,,,,,,,,,,,,,,,,,,,,,,,,,,,,,,,,,,,0,,,,,,,,,,,,,,644.8707495217237,None,,644.8707495217237,None,644.8704403445263,None,,,,,,,,,,,,,,,,,,,,,,,,,,,,,,,,,,,,,,,,,,,,,,,APFRRF,01,AP,FR,RF,2022-07-05_19h38.05.393,DigitSpanTask_visual,2022.1.3,58.904526987012645,
0,2,,,,,,,5,90761.0,0.55,16709.0,0,0,0,0,,,,,1,0,1,0,,,,,,,,,,,,,0,5,5,5,0,0,0,0,,,,,,,,,,,,,,,,,,,,,,,,,,,646.349499963053,None,space,1.1545023596663668,646.349499963053,None,,,,,,,,,,,,,,,647.5338091484591,None,648.091852435733,None,,,,,,,,,,,,,,,,,,,,,,,,,,,,,,,,,,,,,,,,,,,,,,,,,,,,,,APFRRF,01,AP,FR,RF,2022-07-05_19h38.05.393,DigitSpanTask_visual,2022.1.3,58.904526987012645,
0,2,,,,,,,5,90761.0,0.55,16709.0,0,0,0,0,,,,,1,0,1,0,,,,,,,,,,,,,0,5,5,5,1,0,1,0,,,,,,,,,,,,,,,,,,,,,,,,,,,,,,,,,,,,,,,,,,,,,,,,,649.0921484346145,649.0921484346145,,,,,,,,,,,,,,,,,,,,,,,,,,,,,,,,,,,,,,,,,,,,,,,,,,,,,,APFRRF,01,AP,FR,RF,2022-07-05_19h38.05.393,DigitSpanTask_visual,2022.1.3,58.904526987012645,
0,2,,,,,,,5,90761.0,0.55,16709.0,0,0,0,0,,,,,1,0,1,0,,,,,,,,,,,,,0,5,5,5,2,0,2,0,,,,,,,,,,,,,,,,,,,,,,,,,,,,,,,,,,,,,,,,,,,,,,,,,650.0924444334996,650.0924444334996,,,,,,,,,,,,,,,,,,,,,,,,,,,,,,,,,,,,,,,,,,,,,,,,,,,,,,APFRRF,01,AP,FR,RF,2022-07-05_19h38.05.393,DigitSpanTask_visual,2022.1.3,58.904526987012645,
0,2,,,,,,,5,90761.0,0.55,16709.0,0,0,0,0,,,,,1,0,1,0,,,,,,,,,,,,,0,5,5,5,3,0,3,0,,,,,,,,,,,,,,,,,,,,,,,,,,,,,,,,,,,,,,,,,,,,,,,,,651.0925014984714,651.0925014984714,,,,,,,,,,,,,,,,,,,,,,,,,,,,,,,,,,,,,,,,,,,,,,,,,,,,,,APFRRF,01,AP,FR,RF,2022-07-05_19h38.05.393,DigitSpanTask_visual,2022.1.3,58.904526987012645,
0,2,,,,,,,5,90761.0,0.55,16709.0,0,0,0,0,,,,,1,0,1,0,,,,,,,,,,,,,0,5,5,5,4,0,4,0,,,,,,,,,,,,,,,,,,,,,,,,,,,,,,,,,,,,,,,,,,,,,,,,,652.092550352656,None,,,,,,,,,,,,,,,,,,,,,,,,,,,,,,,,,,,,,,,,,,,,,,,,,,,,,,APFRRF,01,AP,FR,RF,2022-07-05_19h38.05.393,DigitSpanTask_visual,2022.1.3,58.904526987012645,
0,2,,,,,,,5,90761.0,0.55,16709.0,0,0,0,0,,,,,1,0,1,0,,,,,,,,,,,,,0,5,5,5,,,,,,,,,,,,,,,,,,,,,,,,,,,,,,,,,,,,,,,,,0,,,,,,,,,,,,,,653.0921685510439,None,,653.0921685510439,None,653.719898843101,None,,,,,,,,,,,,,,,,,,,,,,,,,,,,,,,,,,,,,,,,,,,,,,,APFRRF,01,AP,FR,RF,2022-07-05_19h38.05.393,DigitSpanTask_visual,2022.1.3,58.904526987012645,
0,2,,,,,,,,,,,0,0,0,0,,,,,,,,,,,,,,,,,,,,,,,,,,,,,,,,,,,,,,,,,,,,,,,,,,,,,,,,,,,,,,,,,,,,,,,,,,,,,,,,,,,,,,654.7613206230344,None,2.953125,3.1300289019709453,654.7613206230344,None,space,2.631028539759427,658.1534772684354,None,,,,,,,,,,,,,,,,,,,,,,,,,,,,,,,,,,,,,APFRRF,01,AP,FR,RF,2022-07-05_19h38.05.393,DigitSpanTask_visual,2022.1.3,58.904526987012645,
2,0,datasets/instruccion1_pasiva.png,datasets/instruccion1_activa.png,,,,,,,,,0,1,1,1,0,0,0,0,,,,,,,,,,,,,,,,,,,,,,,,,0,0,0,0,,,,,,,,,,,,,,,,,,,,,,,,,,,,,,,,,,,,,,,,,,,,,,,,,,,,,,,,,,,,,,,,,,,,,,,,,,,,,,,,,,,,,,,,,,,,,,,,,,,,APFRRF,01,AP,FR,RF,2022-07-05_19h38.05.393,DigitSpanTask_visual,2022.1.3,58.904526987012645,
2,0,datasets/instruccion2.png,datasets/instruccion2.png,,,,,,,,,0,1,1,1,0,0,0,0,,,,,,,,,,,,,,,,,,,,,,,,,0,1,1,1,,,,,,,,,,,,,,,,,,,,,,,,,,,,,,,,,,,,,,,,,,,,,,,,,,,,,,,,,,,,,,,,,,,,,,,,,,,,,,,,,,,,,,,,,,,,,,,,,,,,APFRRF,01,AP,FR,RF,2022-07-05_19h38.05.393,DigitSpanTask_visual,2022.1.3,58.904526987012645,
2,0,datasets/instruccion3.png,datasets/instruccion3.png,,,,,,,,,0,1,1,1,0,0,0,0,,,,,,,,,,,,,,,,,,,,,,,,,0,2,2,2,,,,,,,,,,,,,,,,,,,,,,,,,,,,,,,,,,,,,,,,,,,,,,,,,,,,,,,,,,,,,,,,,,,,,,,,,,,,,,,,,,,,,,,,,,,,,,,,,,,,APFRRF,01,AP,FR,RF,2022-07-05_19h38.05.393,DigitSpanTask_visual,2022.1.3,58.904526987012645,
2,0,,,2,83,0.55,38.0,,,,,0,1,1,1,0,0,0,0,,,,,,,,,,,,,,,,,,,,,,,,,,,,,0,0,0,0,0,0,0,0,,,,,,,,,,,,,,,,,,,,,,,,,,,,,,,,,,,,,,,,,,,,,,,,,,,,,,,,667.8688412936935,None,668.4278768546137,None,,,,,,,,,,,,,,,,,,,,,,,,,,,,,,,,,APFRRF,01,AP,FR,RF,2022-07-05_19h38.05.393,DigitSpanTask_visual,2022.1.3,58.904526987012645,
2,0,,,2,83,0.55,38.0,,,,,0,1,1,1,0,0,0,0,,,,,,,,,,,,,,,,,,,,,,,,,,,,,0,0,0,0,1,0,1,0,,,,,,,,,,,,,,,,,,,,,,,,,,,,,,,,,,,,,,,,,,,,,,,,,,,,,,,,,,669.4286876698607,669.4286876698607,,,,,,,,,,,,,,,,,,,,,,,,,,,,,,,,,APFRRF,01,AP,FR,RF,2022-07-05_19h38.05.393,DigitSpanTask_visual,2022.1.3,58.904526987012645,
2,0,,,2,83,0.55,38.0,,,,,0,1,1,1,0,0,0,0,,,,,,,,,,,,,,,,,,,,,,,,,,,,,0,0,0,0,,,,,,,,,,,,,,,,,,,,,,,,,,,,,0,,,,,,,,,,,,,,,,,,,,,,,,,,,,,,,,,,,670.4301627378081,None,,670.4301627378081,None,672.4642309366063,None,,,,,,,,,,,,,,,,,,,,,,,,,,APFRRF,01,AP,FR,RF,2022-07-05_19h38.05.393,DigitSpanTask_visual,2022.1.3,58.904526987012645,
2,0,,,2,16,0.55,61.0,,,,,0,1,1,1,0,0,0,0,,,,,,,,,,,,,,,,,,,,,,,,,,,,,0,1,1,1,0,0,0,0,,,,,,,,,,,,,,,,,,,,,,,,,,,,,,,,,,,,,,,,,,,,,,,,,,,,,,,,673.9397956335051,None,674.4991267827681,None,,,,,,,,,,,,,,,,,,,,,,,,,,,,,,,,,APFRRF,01,AP,FR,RF,2022-07-05_19h38.05.393,DigitSpanTask_visual,2022.1.3,58.904526987012645,
2,0,,,2,16,0.55,61.0,,,,,0,1,1,1,0,0,0,0,,,,,,,,,,,,,,,,,,,,,,,,,,,,,0,1,1,1,1,0,1,0,,,,,,,,,,,,,,,,,,,,,,,,,,,,,,,,,,,,,,,,,,,,,,,,,,,,,,,,,,675.4996157351561,675.4996157351561,,,,,,,,,,,,,,,,,,,,,,,,,,,,,,,,,APFRRF,01,AP,FR,RF,2022-07-05_19h38.05.393,DigitSpanTask_visual,2022.1.3,58.904526987012645,
2,0,,,2,16,0.55,61.0,,,,,0,1,1,1,0,0,0,0,,,,,,,,,,,,,,,,,,,,,,,,,,,,,0,1,1,1,,,,,,,,,,,,,,,,,,,,,,,,,,,,,0,,,,,,,,,,,,,,,,,,,,,,,,,,,,,,,,,,,676.4996982535667,None,,676.4996982535667,None,676.9418832261836,None,,,,,,,,,,,,,,,,,,,,,,,,,,APFRRF,01,AP,FR,RF,2022-07-05_19h38.05.393,DigitSpanTask_visual,2022.1.3,58.904526987012645,
2,0,,,,,,,3,497.0,0.55,794.0,0,1,1,1,0,0,0,0,,,,,,,,,,,,,,,,,,,,,,,,,,,,,,,,,,,,,0,0,0,0,,,,,,,,,,,,,,,,,,,,,0,,,,,,,,,,,,,,,,,,,,,,,,,,,,,,,,,,,,,,,,,,677.9458629948058,None,679.7550237702308,None,682.3154202691512,682.3154202691512,683.3154962189328,None,,683.3154962189328,None,684.1145310408829,None,,,,,,,,,,,,,APFRRF,01,AP,FR,RF,2022-07-05_19h38.05.393,DigitSpanTask_visual,2022.1.3,58.904526987012645,
2,0,,,,,,,3,235.0,0.55,532.0,0,1,1,1,0,0,0,0,,,,,,,,,,,,,,,,,,,,,,,,,,,,,,,,,,,,,0,1,1,1,,,,,,,,,,,,,,,,,,,,,0,,,,,,,,,,,,,,,,,,,,,,,,,,,,,,,,,,,,,,,,,,,,685.5874206632689,None,688.147406622822,688.147406622822,689.147601218483,None,,689.147601218483,None,689.6899229007067,None,,,,,,,,,,,,,APFRRF,01,AP,FR,RF,2022-07-05_19h38.05.393,DigitSpanTask_visual,2022.1.3,58.904526987012645,
2,0,,,,,,,4,6081.0,0.55,1806.0,0,1,1,1,0,0,0,0,,,,,,,,,,,,,,,,,,,,,,,,,,,,,,,,,,,,,0,2,2,2,,,,,,,,,,,,,,,,,,,,,0,,,,,,,,,,,,,,,,,,,,,,,,,,,,,,,,,,,,,,,,,,,,691.16518133524,None,694.7258565903903,None,695.7258911167515,None,,695.7258911167515,None,695.7258808122133,None,,,,,,,,,,,,,APFRRF,01,AP,FR,RF,2022-07-05_19h38.05.393,DigitSpanTask_visual,2022.1.3,58.904526987012645,
2,0,,,,,,,4,3168.0,0.55,8613.0,0,1,1,1,0,0,0,0,,,,,,,,,,,,,,,,,,,,,,,,,,,,,,,,,,,,,0,3,3,3,,,,,,,,,,,,,,,,,,,,,0,,,,,,,,,,,,,,,,,,,,,,,,,,,,,,,,,,,,,,,,,,,,697.2007783826411,None,700.7616453596747,700.7616453596747,701.7620382869023,None,,701.7620382869023,None,701.7618067016447,None,,,,,,,,,,,,,APFRRF,01,AP,FR,RF,2022-07-05_19h38.05.393,DigitSpanTask_visual,2022.1.3,58.904526987012645,
2,0,datasets/instruccion1_pasiva.png,datasets/instruccion1_activa.png,,,,,,,,,0,1,1,1,1,0,1,0,,,,,,,,,,,,,,,,,,,,,,,,,0,0,0,0,,,,,,,,,,,,,,,,,,,,,,,,,,,,,,,,,,,,,,,,,,,,,,,,,,,,,,,,,,,,,,,,,,,,,,,,,,,,,,,,,,,,,,,,702.796683252458,None,1,2.711164207536058,702.796683252458,None,space,2.33767435102709,706.0005550492242,None,,,APFRRF,01,AP,FR,RF,2022-07-05_19h38.05.393,DigitSpanTask_visual,2022.1.3,58.904526987012645,
2,0,datasets/instruccion2.png,datasets/instruccion2.png,,,,,,,,,0,1,1,1,1,0,1,0,,,,,,,,,,,,,,,,,,,,,,,,,0,1,1,1,,,,,,,,,,,,,,,,,,,,,,,,,,,,,,,,,,,,,,,,,,,,,,,,,,,,,,,,,,,,,,,,,,,,,,,,,,,,,,,,,,,,,,,,,,,,,,,,,,,,APFRRF,01,AP,FR,RF,2022-07-05_19h38.05.393,DigitSpanTask_visual,2022.1.3,58.904526987012645,
2,0,datasets/instruccion3.png,datasets/instruccion3.png,,,,,,,,,0,1,1,1,1,0,1,0,,,,,,,,,,,,,,,,,,,,,,,,,0,2,2,2,,,,,,,,,,,,,,,,,,,,,,,,,,,,,,,,,,,,,,,,,,,,,,,,,,,,,,,,,,,,,,,,,,,,,,,,,,,,,,,,,,,,,,,,,,,,,,,,,,,,APFRRF,01,AP,FR,RF,2022-07-05_19h38.05.393,DigitSpanTask_visual,2022.1.3,58.904526987012645,
2,0,,,2,72,0.75,27.0,,,,,0,1,1,1,1,0,1,0,,,,,,,,,,,,,,,,,,,,,,,,,,,,,0,0,0,0,0,0,0,0,,,,,,,,,,,,,,,,,,,,,,,,,,,,,,,,,,,,,,,,,,,,,,,,,,,,,,,,721.1400210196189,None,721.9028347743297,None,,,,,,,,,,,,,,,,,,,,,,,,,,,,,,,,,APFRRF,01,AP,FR,RF,2022-07-05_19h38.05.393,DigitSpanTask_visual,2022.1.3,58.904526987012645,
2,0,,,2,72,0.75,27.0,,,,,0,1,1,1,1,0,1,0,,,,,,,,,,,,,,,,,,,,,,,,,,,,,0,0,0,0,1,0,1,0,,,,,,,,,,,,,,,,,,,,,,,,,,,,,,,,,,,,,,,,,,,,,,,,,,,,,,,,,,722.9037806570304,None,,,,,,,,,,,,,,,,,,,,,,,,,,,,,,,,,APFRRF,01,AP,FR,RF,2022-07-05_19h38.05.393,DigitSpanTask_visual,2022.1.3,58.904526987012645,
2,0,,,2,72,0.75,27.0,,,,,0,1,1,1,1,0,1,0,,,,,,,,,,,,,,,,,,,,,,,,,,,,,0,0,0,0,,,,,,,,,,,,,,,,,,,,,,,,,,,,,0,,,,,,,,,,,,,,,,,,,,,,,,,,,,,,,,,,,723.9038192477274,None,,723.9038192477274,None,725.0228658111046,None,,,,,,,,,,,,,,,,,,,,,,,,,,APFRRF,01,AP,FR,RF,2022-07-05_19h38.05.393,DigitSpanTask_visual,2022.1.3,58.904526987012645,
2,0,,,2,81,0.35,18.0,,,,,0,1,1,1,1,0,1,0,,,,,,,,,,,,,,,,,,,,,,,,,,,,,0,1,1,1,0,0,0,0,,,,,,,,,,,,,,,,,,,,,,,,,,,,,,,,,,,,,,,,,,,,,,,,,,,,,,,,726.498580765412,None,726.8540257490313,None,,,,,,,,,,,,,,,,,,,,,,,,,,,,,,,,,APFRRF,01,AP,FR,RF,2022-07-05_19h38.05.393,DigitSpanTask_visual,2022.1.3,58.904526987012645,
2,0,,,2,81,0.35,18.0,,,,,0,1,1,1,1,0,1,0,,,,,,,,,,,,,,,,,,,,,,,,,,,,,0,1,1,1,1,0,1,0,,,,,,,,,,,,,,,,,,,,,,,,,,,,,,,,,,,,,,,,,,,,,,,,,,,,,,,,,,727.8543008104061,727.8543008104061,,,,,,,,,,,,,,,,,,,,,,,,,,,,,,,,,APFRRF,01,AP,FR,RF,2022-07-05_19h38.05.393,DigitSpanTask_visual,2022.1.3,58.904526987012645,
2,0,,,2,81,0.35,18.0,,,,,0,1,1,1,1,0,1,0,,,,,,,,,,,,,,,,,,,,,,,,,,,,,0,1,1,1,,,,,,,,,,,,,,,,,,,,,,,,,,,,,0,,,,,,,,,,,,,,,,,,,,,,,,,,,,,,,,,,,728.8544913006735,None,,728.8544913006735,None,752.7749788572255,None,,,,,,,,,,,,,,,,,,,,,,,,,,APFRRF,01,AP,FR,RF,2022-07-05_19h38.05.393,DigitSpanTask_visual,2022.1.3,58.904526987012645,
2,0,,,,,,,3,279.0,0.15,972.0,0,1,1,1,1,0,1,0,,,,,,,,,,,,,,,,,,,,,,,,,,,,,,,,,,,,,0,0,0,0,,,,,,,,,,,,,,,,,,,,,0,,,,,,,,,,,,,,,,,,,,,,,,,,,,,,,,,,,,,,,,,,753.7777939256594,None,757.0296861016031,None,759.1828205696656,759.1828205696656,760.1833432273339,None,,760.1833432273339,None,760.1833534497637,None,,,,,,,,,,,,,APFRRF,01,AP,FR,RF,2022-07-05_19h38.05.393,DigitSpanTask_visual,2022.1.3,58.904526987012645,
2,0,,,,,,,3,148.0,0.95,841.0,0,1,1,1,1,0,1,0,,,,,,,,,,,,,,,,,,,,,,,,,,,,,,,,,,,,,0,1,1,1,,,,,,,,,,,,,,,,,,,,,0,,,,,,,,,,,,,,,,,,,,,,,,,,,,,,,,,,,,,,,,,,,,761.6583392861539,None,764.608512944309,764.608512944309,765.6089892110282,None,,765.6089892110282,None,765.608629537488,None,,,,,,,,,,,,,APFRRF,01,AP,FR,RF,2022-07-05_19h38.05.393,DigitSpanTask_visual,2022.1.3,58.904526987012645,
2,0,,,,,,,4,1652.0,0.35,2561.0,0,1,1,1,1,0,1,0,,,,,,,,,,,,,,,,,,,,,,,,,,,,,,,,,,,,,0,2,2,2,,,,,,,,,,,,,,,,,,,,,1,,,,,,,,,,,,,,,,,,,,,,,,,,,,,,,,,,,,,,,,,,,,767.085716514357,None,770.4410449047973,None,771.4413536304019,None,2561,771.4413536304019,None,775.221716300879,None,,,,,,,,,,,,,APFRRF,01,AP,FR,RF,2022-07-05_19h38.05.393,DigitSpanTask_visual,2022.1.3,58.904526987012645,
2,0,,,,,,,4,7093.0,0.55,3907.0,0,1,1,1,1,0,1,0,,,,,,,,,,,,,,,,,,,,,,,,,,,,,,,,,,,,,0,3,3,3,,,,,,,,,,,,,,,,,,,,,0,,,,,,,,,,,,,,,,,,,,,,,,,,,,,,,,,,,,,,,,,,,,776.6981373828967,None,780.2589132201902,None,781.259427626017,None,,781.259427626017,None,782.8362420047488,None,,,,,,,,,,,,,APFRRF,01,AP,FR,RF,2022-07-05_19h38.05.393,DigitSpanTask_visual,2022.1.3,58.904526987012645,
2,0,,,,,,,5,10256.0,0.95,65201.0,0,1,1,1,1,0,1,0,,,,,,,,,,,,,,,,,,,,,,,,,,,,,,,,,,,,,0,4,4,4,,,,,,,,,,,,,,,,,,,,,0,,,,,,,,,,,,,,,,,,,,,,,,,,,,,,,,,,,,,,,,,,,,784.3109724856549,None,789.261393699042,None,790.2618633971321,None,,790.2618633971321,None,790.2619721490119,None,,,,,,,,,,,,,APFRRF,01,AP,FR,RF,2022-07-05_19h38.05.393,DigitSpanTask_visual,2022.1.3,58.904526987012645,
2,0,,,,,,,5,47319.0,0.35,91374.0,0,1,1,1,1,0,1,0,,,,,,,,,,,,,,,,,,,,,,,,,,,,,,,,,,,,,0,5,5,5,,,,,,,,,,,,,,,,,,,,,0,,,,,,,,,,,,,,,,,,,,,,,,,,,,,,,,,,,,,,,,,,,,791.7375996584342,None,796.0936846729237,796.0936846729237,797.0953584829764,None,,797.0953584829764,None,797.0945714379559,None,,,,,,,,,,,,,APFRRF,01,AP,FR,RF,2022-07-05_19h38.05.393,DigitSpanTask_visual,2022.1.3,58.904526987012645,
2,0,,,,,,,6,982506.0,0.55,605289.0,0,1,1,1,1,0,1,0,,,,,,,,,,,,,,,,,,,,,,,,,,,,,,,,,,,,,0,6,6,6,,,,,,,,,,,,,,,,,,,,,0,,,,,,,,,,,,,,,,,,,,,,,,,,,,,,,,,,,,,,,,,,,,798.568277212602,None,804.1287845571533,804.1287845571533,805.1291007135184,None,,805.1291007135184,None,805.1290863035865,None,,,,,,,,,,,,,APFRRF,01,AP,FR,RF,2022-07-05_19h38.05.393,DigitSpanTask_visual,2022.1.3,58.904526987012645,
2,0,,,,,,,6,314795.0,0.95,597413.0,0,1,1,1,1,0,1,0,,,,,,,,,,,,,,,,,,,,,,,,,,,,,,,,,,,,,0,7,7,7,,,,,,,,,,,,,,,,,,,,,0,,,,,,,,,,,,,,,,,,,,,,,,,,,,,,,,,,,,,,,,,,,,806.604295473393,None,812.5722520547497,None,813.5722069364743,None,,813.5722069364743,None,813.5721083659737,None,,,,,,,,,,,,,APFRRF,01,AP,FR,RF,2022-07-05_19h38.05.393,DigitSpanTask_visual,2022.1.3,58.904526987012645,
2,0,,,,,,,,,,,0,1,1,1,,,,,,,,,,,,,,,,,,,,,,,,,,,,,,,,,,,,,,,,,,,,,,,,,,,,,,,,,,,,,,,,,,,,,,,,,,,,,,,,,,,,,,,,,,,,,,,,,,,,,,,,,,,,,,,,,,,,,,,,814.6069319572052,None,5,11.44747148803799,814.6069319572052,None,space,1.4588117913954193,826.5615242505628,None,,,APFRRF,01,AP,FR,RF,2022-07-05_19h38.05.393,DigitSpanTask_visual,2022.1.3,58.904526987012645,
0,2,datasets/instruccion1_pasiva.png,datasets/instruccion1_activa.png,,,,,,,,,1,0,2,0,,,,,0,0,0,0,0,0,0,0,,,,,,,,,,,,,,,,,,,,,,,,,,,,,,,,,,,,,,,,,,,,,,,,,,,,,,,,,,,,,,,,,,,,,,,,,,,,,,,,,,,,,,,,,,,,,,,,,,,,,,,,,,,,,,,,,,,,,,,,APFRRF,01,AP,FR,RF,2022-07-05_19h38.05.393,DigitSpanTask_visual,2022.1.3,58.904526987012645,
0,2,datasets/instruccion2.png,datasets/instruccion2.png,,,,,,,,,1,0,2,0,,,,,0,0,0,0,0,1,1,1,,,,,,,,,,,,,,,,,,,,,,,,,,,,,,,,,,,,,,,,,,,,,,,,,,,,,,,,,,,,,,,,,,,,,,,,,,,,,,,,,,,,,,,,,,,,,,,,,,,,,,,,,,,,,,,,,,,,,,,,APFRRF,01,AP,FR,RF,2022-07-05_19h38.05.393,DigitSpanTask_visual,2022.1.3,58.904526987012645,
0,2,datasets/instruccion3.png,datasets/instruccion3.png,,,,,,,,,1,0,2,0,,,,,0,0,0,0,0,2,2,2,,,,,,,,,,,,,,,,,,,,,,,,,,,,,,,,,,,,,,,,,,,,,,,,,,,,,,,,,,,,,,,,,,,,,,,,,,,,,,,,,,,,,,,,,,,,,,,,,,,,,,,,,,,,,,,,,,,,,,,,APFRRF,01,AP,FR,RF,2022-07-05_19h38.05.393,DigitSpanTask_visual,2022.1.3,58.904526987012645,
0,2,,,2,25,0.75,25,,,,,1,0,2,0,,,,,0,0,0,0,,,,,0,0,0,0,0,0,0,0,,,,,,,,,,,,,,,,,,,,,,,,,,,,,,,,,,,848.431388197816,None,space,3.167718032418634,848.431388197816,None,851.6182562750946,None,852.3814871378017,None,,,,,,,,,,,,,,,,,,,,,,,,,,,,,,,,,,,,,,,,,,,,,,,,,,,,,,,,,,,,,,,,,,,,APFRRF,01,AP,FR,RF,2022-07-05_19h38.05.393,DigitSpanTask_visual,2022.1.3,58.904526987012645,
0,2,,,2,25,0.75,25,,,,,1,0,2,0,,,,,0,0,0,0,,,,,0,0,0,0,1,0,1,0,,,,,,,,,,,,,,,,,,,,,,,,,,,,,,,,,,,,,,,,,,,853.3816398584459,853.3816398584459,,,,,,,,,,,,,,,,,,,,,,,,,,,,,,,,,,,,,,,,,,,,,,,,,,,,,,,,,,,,,,,,,,,,APFRRF,01,AP,FR,RF,2022-07-05_19h38.05.393,DigitSpanTask_visual,2022.1.3,58.904526987012645,
0,2,,,2,25,0.75,25,,,,,1,0,2,0,,,,,0,0,0,0,,,,,0,0,0,0,,,,,,,,,,,,,,,,,,,,,,,,,,,,,,,,,,,,,,,,,,,,,,,,,0,854.3817195030861,None,,854.3817195030861,None,855.7042273238585,None,,,,,,,,,,,,,,,,,,,,,,,,,,,,,,,,,,,,,,,,,,,,,,,,,,,,,,,,,,,,APFRRF,01,AP,FR,RF,2022-07-05_19h38.05.393,DigitSpanTask_visual,2022.1.3,58.904526987012645,
0,2,,,2,68,0.35,86.0,,,,,1,0,2,0,,,,,0,0,0,0,,,,,0,1,1,1,0,0,0,0,,,,,,,,,,,,,,,,,,,,,,,,,,,,,,,,,,,857.1789479518193,None,space,14.666910090945748,857.1789479518193,None,871.8775369280193,None,872.233516433891,None,,,,,,,,,,,,,,,,,,,,,,,,,,,,,,,,,,,,,,,,,,,,,,,,,,,,,,,,,,,,,,,,,,,,APFRRF,01,AP,FR,RF,2022-07-05_19h38.05.393,DigitSpanTask_visual,2022.1.3,58.904526987012645,
0,2,,,2,68,0.35,86.0,,,,,1,0,2,0,,,,,0,0,0,0,,,,,0,1,1,1,1,0,1,0,,,,,,,,,,,,,,,,,,,,,,,,,,,,,,,,,,,,,,,,,,,873.2339134254617,873.2339134254617,,,,,,,,,,,,,,,,,,,,,,,,,,,,,,,,,,,,,,,,,,,,,,,,,,,,,,,,,,,,,,,,,,,,APFRRF,01,AP,FR,RF,2022-07-05_19h38.05.393,DigitSpanTask_visual,2022.1.3,58.904526987012645,
0,2,,,2,68,0.35,86.0,,,,,1,0,2,0,,,,,0,0,0,0,,,,,0,1,1,1,,,,,,,,,,,,,,,,,,,,,,,,,,,,,,,,,,,,,,,,,,,,,,,,,0,874.2340501761242,None,,874.2340501761242,None,874.2337295038233,None,,,,,,,,,,,,,,,,,,,,,,,,,,,,,,,,,,,,,,,,,,,,,,,,,,,,,,,,,,,,APFRRF,01,AP,FR,RF,2022-07-05_19h38.05.393,DigitSpanTask_visual,2022.1.3,58.904526987012645,
0,2,,,,,,,3,349,0.15,943,1,0,2,0,,,,,0,0,0,0,,,,,,,,,,,,,0,0,0,0,0,0,0,0,,,,,,,,,,,,,,,,,,,,,,,,,,,876.53964907095,None,space,2.291409438184928,876.53964907095,None,,,,,,,,,,,,,875.2517907727197,None,878.8622225780236,None,879.0152556428657,None,,,,,,,,,,,,,,,,,,,,,,,,,,,,,,,,,,,,,,,,,,,,,,,,,,,,,,APFRRF,01,AP,FR,RF,2022-07-05_19h38.05.393,DigitSpanTask_visual,2022.1.3,58.904526987012645,
0,2,,,,,,,3,349,0.15,943,1,0,2,0,,,,,0,0,0,0,,,,,,,,,,,,,0,0,0,0,1,0,1,0,,,,,,,,,,,,,,,,,,,,,,,,,,,,,,,,,,,,,,,,,,,,,,,,,880.0143873521047,880.0143873521047,,,,,,,,,,,,,,,,,,,,,,,,,,,,,,,,,,,,,,,,,,,,,,,,,,,,,,APFRRF,01,AP,FR,RF,2022-07-05_19h38.05.393,DigitSpanTask_visual,2022.1.3,58.904526987012645,
0,2,,,,,,,3,349,0.15,943,1,0,2,0,,,,,0,0,0,0,,,,,,,,,,,,,0,0,0,0,2,0,2,0,,,,,,,,,,,,,,,,,,,,,,,,,,,,,,,,,,,,,,,,,,,,,,,,,881.0171855884291,881.0171855884291,,,,,,,,,,,,,,,,,,,,,,,,,,,,,,,,,,,,,,,,,,,,,,,,,,,,,,APFRRF,01,AP,FR,RF,2022-07-05_19h38.05.393,DigitSpanTask_visual,2022.1.3,58.904526987012645,
0,2,,,,,,,3,349,0.15,943,1,0,2,0,,,,,0,0,0,0,,,,,,,,,,,,,0,0,0,0,,,,,,,,,,,,,,,,,,,,,,,,,,,,,,,,,,,,,,,,,0,,,,,,,,,,,,,,882.0176951088357,None,,882.0176951088357,None,882.0185075251866,None,,,,,,,,,,,,,,,,,,,,,,,,,,,,,,,,,,,,,,,,,,,,,,,APFRRF,01,AP,FR,RF,2022-07-05_19h38.05.393,DigitSpanTask_visual,2022.1.3,58.904526987012645,
0,2,,,,,,,3,256.0,0.95,652.0,1,0,2,0,,,,,0,0,0,0,,,,,,,,,,,,,0,1,1,1,0,0,0,0,,,,,,,,,,,,,,,,,,,,,,,,,,,883.5083162959527,None,space,0.07998576976751792,883.5083162959527,None,,,,,,,,,,,,,,,883.6100926997897,None,884.5591866394097,None,,,,,,,,,,,,,,,,,,,,,,,,,,,,,,,,,,,,,,,,,,,,,,,,,,,,,,APFRRF,01,AP,FR,RF,2022-07-05_19h38.05.393,DigitSpanTask_visual,2022.1.3,58.904526987012645,
0,2,,,,,,,3,256.0,0.95,652.0,1,0,2,0,,,,,0,0,0,0,,,,,,,,,,,,,0,1,1,1,1,0,1,0,,,,,,,,,,,,,,,,,,,,,,,,,,,,,,,,,,,,,,,,,,,,,,,,,885.559744562408,885.559744562408,,,,,,,,,,,,,,,,,,,,,,,,,,,,,,,,,,,,,,,,,,,,,,,,,,,,,,APFRRF,01,AP,FR,RF,2022-07-05_19h38.05.393,DigitSpanTask_visual,2022.1.3,58.904526987012645,
0,2,,,,,,,3,256.0,0.95,652.0,1,0,2,0,,,,,0,0,0,0,,,,,,,,,,,,,0,1,1,1,2,0,2,0,,,,,,,,,,,,,,,,,,,,,,,,,,,,,,,,,,,,,,,,,,,,,,,,,886.5600684779674,None,,,,,,,,,,,,,,,,,,,,,,,,,,,,,,,,,,,,,,,,,,,,,,,,,,,,,,APFRRF,01,AP,FR,RF,2022-07-05_19h38.05.393,DigitSpanTask_visual,2022.1.3,58.904526987012645,
0,2,,,,,,,3,256.0,0.95,652.0,1,0,2,0,,,,,0,0,0,0,,,,,,,,,,,,,0,1,1,1,,,,,,,,,,,,,,,,,,,,,,,,,,,,,,,,,,,,,,,,,0,,,,,,,,,,,,,,887.5603842237939,None,,887.5603842237939,None,887.5600528774703,None,,,,,,,,,,,,,,,,,,,,,,,,,,,,,,,,,,,,,,,,,,,,,,,APFRRF,01,AP,FR,RF,2022-07-05_19h38.05.393,DigitSpanTask_visual,2022.1.3,58.904526987012645,
0,2,,,,,,,4,1502.0,0.35,2051.0,1,0,2,0,,,,,0,0,0,0,,,,,,,,,,,,,0,2,2,2,0,0,0,0,,,,,,,,,,,,,,,,,,,,,,,,,,,889.035874572015,None,space,3.6878467775641184,889.035874572015,None,,,,,,,,,,,,,,,892.7486838107907,None,893.1046358105305,None,,,,,,,,,,,,,,,,,,,,,,,,,,,,,,,,,,,,,,,,,,,,,,,,,,,,,,APFRRF,01,AP,FR,RF,2022-07-05_19h38.05.393,DigitSpanTask_visual,2022.1.3,58.904526987012645,
0,2,,,,,,,4,1502.0,0.35,2051.0,1,0,2,0,,,,,0,0,0,0,,,,,,,,,,,,,0,2,2,2,1,0,1,0,,,,,,,,,,,,,,,,,,,,,,,,,,,,,,,,,,,,,,,,,,,,,,,,,894.1046904122668,894.1046904122668,,,,,,,,,,,,,,,,,,,,,,,,,,,,,,,,,,,,,,,,,,,,,,,,,,,,,,APFRRF,01,AP,FR,RF,2022-07-05_19h38.05.393,DigitSpanTask_visual,2022.1.3,58.904526987012645,
0,2,,,,,,,4,1502.0,0.35,2051.0,1,0,2,0,,,,,0,0,0,0,,,,,,,,,,,,,0,2,2,2,2,0,2,0,,,,,,,,,,,,,,,,,,,,,,,,,,,,,,,,,,,,,,,,,,,,,,,,,895.1049133351407,895.1049133351407,,,,,,,,,,,,,,,,,,,,,,,,,,,,,,,,,,,,,,,,,,,,,,,,,,,,,,APFRRF,01,AP,FR,RF,2022-07-05_19h38.05.393,DigitSpanTask_visual,2022.1.3,58.904526987012645,
0,2,,,,,,,4,1502.0,0.35,2051.0,1,0,2,0,,,,,0,0,0,0,,,,,,,,,,,,,0,2,2,2,3,0,3,0,,,,,,,,,,,,,,,,,,,,,,,,,,,,,,,,,,,,,,,,,,,,,,,,,896.105919156591,None,,,,,,,,,,,,,,,,,,,,,,,,,,,,,,,,,,,,,,,,,,,,,,,,,,,,,,APFRRF,01,AP,FR,RF,2022-07-05_19h38.05.393,DigitSpanTask_visual,2022.1.3,58.904526987012645,
0,2,,,,,,,4,1502.0,0.35,2051.0,1,0,2,0,,,,,0,0,0,0,,,,,,,,,,,,,0,2,2,2,,,,,,,,,,,,,,,,,,,,,,,,,,,,,,,,,,,,,,,,,0,,,,,,,,,,,,,,897.1057110541839,None,,897.1057110541839,None,897.1056814542972,None,,,,,,,,,,,,,,,,,,,,,,,,,,,,,,,,,,,,,,,,,,,,,,,APFRRF,01,AP,FR,RF,2022-07-05_19h38.05.393,DigitSpanTask_visual,2022.1.3,58.904526987012645,
0,2,,,,,,,4,3769.0,0.55,9673.0,1,0,2,0,,,,,0,0,0,0,,,,,,,,,,,,,0,3,3,3,0,0,0,0,,,,,,,,,,,,,,,,,,,,,,,,,,,898.5819945644616,None,space,0.8088553085690364,898.5819945644616,None,,,,,,,,,,,,,,,899.4118231232205,None,899.9711994318168,None,,,,,,,,,,,,,,,,,,,,,,,,,,,,,,,,,,,,,,,,,,,,,,,,,,,,,,APFRRF,01,AP,FR,RF,2022-07-05_19h38.05.393,DigitSpanTask_visual,2022.1.3,58.904526987012645,
0,2,,,,,,,4,3769.0,0.55,9673.0,1,0,2,0,,,,,0,0,0,0,,,,,,,,,,,,,0,3,3,3,1,0,1,0,,,,,,,,,,,,,,,,,,,,,,,,,,,,,,,,,,,,,,,,,,,,,,,,,900.9713940274742,900.9713940274742,,,,,,,,,,,,,,,,,,,,,,,,,,,,,,,,,,,,,,,,,,,,,,,,,,,,,,APFRRF,01,AP,FR,RF,2022-07-05_19h38.05.393,DigitSpanTask_visual,2022.1.3,58.904526987012645,
0,2,,,,,,,4,3769.0,0.55,9673.0,1,0,2,0,,,,,0,0,0,0,,,,,,,,,,,,,0,3,3,3,2,0,2,0,,,,,,,,,,,,,,,,,,,,,,,,,,,,,,,,,,,,,,,,,,,,,,,,,901.9714215336135,901.9714215336135,,,,,,,,,,,,,,,,,,,,,,,,,,,,,,,,,,,,,,,,,,,,,,,,,,,,,,APFRRF,01,AP,FR,RF,2022-07-05_19h38.05.393,DigitSpanTask_visual,2022.1.3,58.904526987012645,
0,2,,,,,,,4,3769.0,0.55,9673.0,1,0,2,0,,,,,0,0,0,0,,,,,,,,,,,,,0,3,3,3,3,0,3,0,,,,,,,,,,,,,,,,,,,,,,,,,,,,,,,,,,,,,,,,,,,,,,,,,902.97160381309,902.97160381309,,,,,,,,,,,,,,,,,,,,,,,,,,,,,,,,,,,,,,,,,,,,,,,,,,,,,,APFRRF,01,AP,FR,RF,2022-07-05_19h38.05.393,DigitSpanTask_visual,2022.1.3,58.904526987012645,
0,2,,,,,,,4,3769.0,0.55,9673.0,1,0,2,0,,,,,0,0,0,0,,,,,,,,,,,,,0,3,3,3,,,,,,,,,,,,,,,,,,,,,,,,,,,,,,,,,,,,,,,,,0,,,,,,,,,,,,,,903.9718665993383,None,,903.9718665993383,None,903.9714691561785,None,,,,,,,,,,,,,,,,,,,,,,,,,,,,,,,,,,,,,,,,,,,,,,,APFRRF,01,AP,FR,RF,2022-07-05_19h38.05.393,DigitSpanTask_visual,2022.1.3,58.904526987012645,
0,2,datasets/instruccion1_pasiva.png,datasets/instruccion1_activa.png,,,,,,,,,1,0,2,0,,,,,1,0,1,0,0,0,0,0,,,,,,,,,,,,,,,,,,,,,,,,,,,,,,,,,,,,,,,,,,,,,,,,,,,,,,,,,,,,,,,,,,,,,,,,,,905.0056334211913,None,4.53125,2.794997577817412,905.0056334211913,None,space,2.545390027880785,908.0583121905584,None,,,,,,,,,,,,,,,,,,,,,,,,,,,,,,,,,,,,,APFRRF,01,AP,FR,RF,2022-07-05_19h38.05.393,DigitSpanTask_visual,2022.1.3,58.904526987012645,
0,2,datasets/instruccion2.png,datasets/instruccion2.png,,,,,,,,,1,0,2,0,,,,,1,0,1,0,0,1,1,1,,,,,,,,,,,,,,,,,,,,,,,,,,,,,,,,,,,,,,,,,,,,,,,,,,,,,,,,,,,,,,,,,,,,,,,,,,,,,,,,,,,,,,,,,,,,,,,,,,,,,,,,,,,,,,,,,,,,,,,,APFRRF,01,AP,FR,RF,2022-07-05_19h38.05.393,DigitSpanTask_visual,2022.1.3,58.904526987012645,
0,2,datasets/instruccion3.png,datasets/instruccion3.png,,,,,,,,,1,0,2,0,,,,,1,0,1,0,0,2,2,2,,,,,,,,,,,,,,,,,,,,,,,,,,,,,,,,,,,,,,,,,,,,,,,,,,,,,,,,,,,,,,,,,,,,,,,,,,,,,,,,,,,,,,,,,,,,,,,,,,,,,,,,,,,,,,,,,,,,,,,,APFRRF,01,AP,FR,RF,2022-07-05_19h38.05.393,DigitSpanTask_visual,2022.1.3,58.904526987012645,
0,2,,,2,91,0.55,19,,,,,1,0,2,0,,,,,1,0,1,0,,,,,0,0,0,0,0,0,0,0,,,,,,,,,,,,,,,,,,,,,,,,,,,,,,,,,,,913.4144210163322,None,space,1.1091012216529634,913.4144210163322,None,914.5504216239315,None,915.1122143672364,None,,,,,,,,,,,,,,,,,,,,,,,,,,,,,,,,,,,,,,,,,,,,,,,,,,,,,,,,,,,,,,,,,,,,APFRRF,01,AP,FR,RF,2022-07-05_19h38.05.393,DigitSpanTask_visual,2022.1.3,58.904526987012645,
0,2,,,2,91,0.55,19,,,,,1,0,2,0,,,,,1,0,1,0,,,,,0,0,0,0,1,0,1,0,,,,,,,,,,,,,,,,,,,,,,,,,,,,,,,,,,,,,,,,,,,916.1116330434925,916.1116330434925,,,,,,,,,,,,,,,,,,,,,,,,,,,,,,,,,,,,,,,,,,,,,,,,,,,,,,,,,,,,,,,,,,,,APFRRF,01,AP,FR,RF,2022-07-05_19h38.05.393,DigitSpanTask_visual,2022.1.3,58.904526987012645,
0,2,,,2,91,0.55,19,,,,,1,0,2,0,,,,,1,0,1,0,,,,,0,0,0,0,,,,,,,,,,,,,,,,,,,,,,,,,,,,,,,,,,,,,,,,,,,,,,,,,0,917.1115903473983,None,,917.1115903473983,None,917.5861200745567,None,,,,,,,,,,,,,,,,,,,,,,,,,,,,,,,,,,,,,,,,,,,,,,,,,,,,,,,,,,,,APFRRF,01,AP,FR,RF,2022-07-05_19h38.05.393,DigitSpanTask_visual,2022.1.3,58.904526987012645,
0,2,,,2,47,0.55,74,,,,,1,0,2,0,,,,,1,0,1,0,,,,,0,1,1,1,0,0,0,0,,,,,,,,,,,,,,,,,,,,,,,,,,,,,,,,,,,919.0614856598622,None,space,2.762227478928253,919.0614856598622,None,921.8416804197368,None,922.4013913179151,None,,,,,,,,,,,,,,,,,,,,,,,,,,,,,,,,,,,,,,,,,,,,,,,,,,,,,,,,,,,,,,,,,,,,APFRRF,01,AP,FR,RF,2022-07-05_19h38.05.393,DigitSpanTask_visual,2022.1.3,58.904526987012645,
0,2,,,2,47,0.55,74,,,,,1,0,2,0,,,,,1,0,1,0,,,,,0,1,1,1,1,0,1,0,,,,,,,,,,,,,,,,,,,,,,,,,,,,,,,,,,,,,,,,,,,923.4015957665179,923.4015957665179,,,,,,,,,,,,,,,,,,,,,,,,,,,,,,,,,,,,,,,,,,,,,,,,,,,,,,,,,,,,,,,,,,,,APFRRF,01,AP,FR,RF,2022-07-05_19h38.05.393,DigitSpanTask_visual,2022.1.3,58.904526987012645,
0,2,,,2,47,0.55,74,,,,,1,0,2,0,,,,,1,0,1,0,,,,,0,1,1,1,,,,,,,,,,,,,,,,,,,,,,,,,,,,,,,,,,,,,,,,,,,,,,,,,0,924.4034284142508,None,,924.4034284142508,None,924.8761279569117,None,,,,,,,,,,,,,,,,,,,,,,,,,,,,,,,,,,,,,,,,,,,,,,,,,,,,,,,,,,,,APFRRF,01,AP,FR,RF,2022-07-05_19h38.05.393,DigitSpanTask_visual,2022.1.3,58.904526987012645,
0,2,,,,,,,3,385.0,0.55,583.0,1,0,2,0,,,,,1,0,1,0,,,,,,,,,,,,,0,0,0,0,0,0,0,0,,,,,,,,,,,,,,,,,,,,,,,,,,,926.9114515850924,None,space,1.6514557470254658,926.9114515850924,None,,,,,,,,,,,,,925.8939071852619,None,928.5891900879396,None,929.1487634554287,None,,,,,,,,,,,,,,,,,,,,,,,,,,,,,,,,,,,,,,,,,,,,,,,,,,,,,,APFRRF,01,AP,FR,RF,2022-07-05_19h38.05.393,DigitSpanTask_visual,2022.1.3,58.904526987012645,
0,2,,,,,,,3,385.0,0.55,583.0,1,0,2,0,,,,,1,0,1,0,,,,,,,,,,,,,0,0,0,0,1,0,1,0,,,,,,,,,,,,,,,,,,,,,,,,,,,,,,,,,,,,,,,,,,,,,,,,,930.1488504897752,930.1488504897752,,,,,,,,,,,,,,,,,,,,,,,,,,,,,,,,,,,,,,,,,,,,,,,,,,,,,,APFRRF,01,AP,FR,RF,2022-07-05_19h38.05.393,DigitSpanTask_visual,2022.1.3,58.904526987012645,
0,2,,,,,,,3,385.0,0.55,583.0,1,0,2,0,,,,,1,0,1,0,,,,,,,,,,,,,0,0,0,0,2,0,2,0,,,,,,,,,,,,,,,,,,,,,,,,,,,,,,,,,,,,,,,,,,,,,,,,,931.148907554747,931.148907554747,,,,,,,,,,,,,,,,,,,,,,,,,,,,,,,,,,,,,,,,,,,,,,,,,,,,,,APFRRF,01,AP,FR,RF,2022-07-05_19h38.05.393,DigitSpanTask_visual,2022.1.3,58.904526987012645,
0,2,,,,,,,3,385.0,0.55,583.0,1,0,2,0,,,,,1,0,1,0,,,,,,,,,,,,,0,0,0,0,,,,,,,,,,,,,,,,,,,,,,,,,,,,,,,,,,,,,,,,,0,,,,,,,,,,,,,,932.1488919542498,None,,932.1488919542498,None,932.6068831030207,None,,,,,,,,,,,,,,,,,,,,,,,,,,,,,,,,,,,,,,,,,,,,,,,APFRRF,01,AP,FR,RF,2022-07-05_19h38.05.393,DigitSpanTask_visual,2022.1.3,58.904526987012645,
0,2,,,,,,,3,294.0,0.55,492.0,1,0,2,0,,,,,1,0,1,0,,,,,,,,,,,,,0,1,1,1,0,0,0,0,,,,,,,,,,,,,,,,,,,,,,,,,,,934.081765072955,None,space,0.10033415347788832,934.081765072955,None,,,,,,,,,,,,,,,934.2003957599518,None,934.7609162417612,None,,,,,,,,,,,,,,,,,,,,,,,,,,,,,,,,,,,,,,,,,,,,,,,,,,,,,,APFRRF,01,AP,FR,RF,2022-07-05_19h38.05.393,DigitSpanTask_visual,2022.1.3,58.904526987012645,
0,2,,,,,,,3,294.0,0.55,492.0,1,0,2,0,,,,,1,0,1,0,,,,,,,,,,,,,0,1,1,1,1,0,1,0,,,,,,,,,,,,,,,,,,,,,,,,,,,,,,,,,,,,,,,,,,,,,,,,,935.7612245568234,None,,,,,,,,,,,,,,,,,,,,,,,,,,,,,,,,,,,,,,,,,,,,,,,,,,,,,,APFRRF,01,AP,FR,RF,2022-07-05_19h38.05.393,DigitSpanTask_visual,2022.1.3,58.904526987012645,
0,2,,,,,,,3,294.0,0.55,492.0,1,0,2,0,,,,,1,0,1,0,,,,,,,,,,,,,0,1,1,1,2,0,2,0,,,,,,,,,,,,,,,,,,,,,,,,,,,,,,,,,,,,,,,,,,,,,,,,,936.7648545459051,None,,,,,,,,,,,,,,,,,,,,,,,,,,,,,,,,,,,,,,,,,,,,,,,,,,,,,,APFRRF,01,AP,FR,RF,2022-07-05_19h38.05.393,DigitSpanTask_visual,2022.1.3,58.904526987012645,
0,2,,,,,,,3,294.0,0.55,492.0,1,0,2,0,,,,,1,0,1,0,,,,,,,,,,,,,0,1,1,1,,,,,,,,,,,,,,,,,,,,,,,,,,,,,,,,,,,,,,,,,0,,,,,,,,,,,,,,937.7626376333246,None,,937.7626376333246,None,938.3038167844934,None,,,,,,,,,,,,,,,,,,,,,,,,,,,,,,,,,,,,,,,,,,,,,,,APFRRF,01,AP,FR,RF,2022-07-05_19h38.05.393,DigitSpanTask_visual,2022.1.3,58.904526987012645,
0,2,,,,,,,4,1358.0,0.55,8531.0,1,0,2,0,,,,,1,0,1,0,,,,,,,,,,,,,0,2,2,2,0,0,0,0,,,,,,,,,,,,,,,,,,,,,,,,,,,939.7792796676295,None,space,0.061965144272107864,939.7792796676295,None,,,,,,,,,,,,,,,939.8651468499338,None,940.4239816571026,None,,,,,,,,,,,,,,,,,,,,,,,,,,,,,,,,,,,,,,,,,,,,,,,,,,,,,,APFRRF,01,AP,FR,RF,2022-07-05_19h38.05.393,DigitSpanTask_visual,2022.1.3,58.904526987012645,
0,2,,,,,,,4,1358.0,0.55,8531.0,1,0,2,0,,,,,1,0,1,0,,,,,,,,,,,,,0,2,2,2,1,0,1,0,,,,,,,,,,,,,,,,,,,,,,,,,,,,,,,,,,,,,,,,,,,,,,,,,941.4243277417881,941.4243277417881,,,,,,,,,,,,,,,,,,,,,,,,,,,,,,,,,,,,,,,,,,,,,,,,,,,,,,APFRRF,01,AP,FR,RF,2022-07-05_19h38.05.393,DigitSpanTask_visual,2022.1.3,58.904526987012645,
0,2,,,,,,,4,1358.0,0.55,8531.0,1,0,2,0,,,,,1,0,1,0,,,,,,,,,,,,,0,2,2,2,2,0,2,0,,,,,,,,,,,,,,,,,,,,,,,,,,,,,,,,,,,,,,,,,,,,,,,,,942.4250925766282,None,,,,,,,,,,,,,,,,,,,,,,,,,,,,,,,,,,,,,,,,,,,,,,,,,,,,,,APFRRF,01,AP,FR,RF,2022-07-05_19h38.05.393,DigitSpanTask_visual,2022.1.3,58.904526987012645,
0,2,,,,,,,4,1358.0,0.55,8531.0,1,0,2,0,,,,,1,0,1,0,,,,,,,,,,,,,0,2,2,2,3,0,3,0,,,,,,,,,,,,,,,,,,,,,,,,,,,,,,,,,,,,,,,,,,,,,,,,,943.4254374296979,None,,,,,,,,,,,,,,,,,,,,,,,,,,,,,,,,,,,,,,,,,,,,,,,,,,,,,,APFRRF,01,AP,FR,RF,2022-07-05_19h38.05.393,DigitSpanTask_visual,2022.1.3,58.904526987012645,
0,2,,,,,,,4,1358.0,0.55,8531.0,1,0,2,0,,,,,1,0,1,0,,,,,,,,,,,,,0,2,2,2,,,,,,,,,,,,,,,,,,,,,,,,,,,,,,,,,,,,,,,,,0,,,,,,,,,,,,,,944.4255947073285,None,,944.4255947073285,None,944.4251607261649,None,,,,,,,,,,,,,,,,,,,,,,,,,,,,,,,,,,,,,,,,,,,,,,,APFRRF,01,AP,FR,RF,2022-07-05_19h38.05.393,DigitSpanTask_visual,2022.1.3,58.904526987012645,
0,2,,,,,,,4,2047.0,0.55,7402.0,1,0,2,0,,,,,1,0,1,0,,,,,,,,,,,,,0,3,3,3,0,0,0,0,,,,,,,,,,,,,,,,,,,,,,,,,,,945.9006182722878,None,space,2.548927235064184,945.9006182722878,None,,,,,,,,,,,,,,,948.477463030933,None,949.0370729364258,None,,,,,,,,,,,,,,,,,,,,,,,,,,,,,,,,,,,,,,,,,,,,,,,,,,,,,,APFRRF,01,AP,FR,RF,2022-07-05_19h38.05.393,DigitSpanTask_visual,2022.1.3,58.904526987012645,
0,2,,,,,,,4,2047.0,0.55,7402.0,1,0,2,0,,,,,1,0,1,0,,,,,,,,,,,,,0,3,3,3,1,0,1,0,,,,,,,,,,,,,,,,,,,,,,,,,,,,,,,,,,,,,,,,,,,,,,,,,950.036921036859,950.036921036859,,,,,,,,,,,,,,,,,,,,,,,,,,,,,,,,,,,,,,,,,,,,,,,,,,,,,,APFRRF,01,AP,FR,RF,2022-07-05_19h38.05.393,DigitSpanTask_visual,2022.1.3,58.904526987012645,
0,2,,,,,,,4,2047.0,0.55,7402.0,1,0,2,0,,,,,1,0,1,0,,,,,,,,,,,,,0,3,3,3,2,0,2,0,,,,,,,,,,,,,,,,,,,,,,,,,,,,,,,,,,,,,,,,,,,,,,,,,951.0372408470248,951.0372408470248,,,,,,,,,,,,,,,,,,,,,,,,,,,,,,,,,,,,,,,,,,,,,,,,,,,,,,APFRRF,01,AP,FR,RF,2022-07-05_19h38.05.393,DigitSpanTask_visual,2022.1.3,58.904526987012645,
0,2,,,,,,,4,2047.0,0.55,7402.0,1,0,2,0,,,,,1,0,1,0,,,,,,,,,,,,,0,3,3,3,3,0,3,0,,,,,,,,,,,,,,,,,,,,,,,,,,,,,,,,,,,,,,,,,,,,,,,,,952.0377256940192,952.0377256940192,,,,,,,,,,,,,,,,,,,,,,,,,,,,,,,,,,,,,,,,,,,,,,,,,,,,,,APFRRF,01,AP,FR,RF,2022-07-05_19h38.05.393,DigitSpanTask_visual,2022.1.3,58.904526987012645,
0,2,,,,,,,4,2047.0,0.55,7402.0,1,0,2,0,,,,,1,0,1,0,,,,,,,,,,,,,0,3,3,3,,,,,,,,,,,,,,,,,,,,,,,,,,,,,,,,,,,,,,,,,0,,,,,,,,,,,,,,953.0385414357406,None,,953.0385414357406,None,953.4620505620296,None,,,,,,,,,,,,,,,,,,,,,,,,,,,,,,,,,,,,,,,,,,,,,,,APFRRF,01,AP,FR,RF,2022-07-05_19h38.05.393,DigitSpanTask_visual,2022.1.3,58.904526987012645,
0,2,,,,,,,,,,,1,0,2,0,,,,,,,,,,,,,,,,,,,,,,,,,,,,,,,,,,,,,,,,,,,,,,,,,,,,,,,,,,,,,,,,,,,,,,,,,,,,,,,,,,,,,,955.8687702703828,None,1.4375,2.754216239292873,955.8687702703828,None,space,1.3794701323240588,958.8545426180935,None,,,,,,,,,,,,,,,,,,,,,,,,,,,,,,,,,,,,,APFRRF,01,AP,FR,RF,2022-07-05_19h38.05.393,DigitSpanTask_visual,2022.1.3,58.904526987012645,
2,0,datasets/instruccion1_pasiva.png,datasets/instruccion1_activa.png,,,,,,,,,1,1,3,1,0,0,0,0,,,,,,,,,,,,,,,,,,,,,,,,,0,0,0,0,,,,,,,,,,,,,,,,,,,,,,,,,,,,,,,,,,,,,,,,,,,,,,,,,,,,,,,,,,,,,,,,,,,,,,,,,,,,,,,,,,,,,,,,,,,,,,,,,,,,APFRRF,01,AP,FR,RF,2022-07-05_19h38.05.393,DigitSpanTask_visual,2022.1.3,58.904526987012645,
2,0,datasets/instruccion2.png,datasets/instruccion2.png,,,,,,,,,1,1,3,1,0,0,0,0,,,,,,,,,,,,,,,,,,,,,,,,,0,1,1,1,,,,,,,,,,,,,,,,,,,,,,,,,,,,,,,,,,,,,,,,,,,,,,,,,,,,,,,,,,,,,,,,,,,,,,,,,,,,,,,,,,,,,,,,,,,,,,,,,,,,APFRRF,01,AP,FR,RF,2022-07-05_19h38.05.393,DigitSpanTask_visual,2022.1.3,58.904526987012645,
2,0,datasets/instruccion3.png,datasets/instruccion3.png,,,,,,,,,1,1,3,1,0,0,0,0,,,,,,,,,,,,,,,,,,,,,,,,,0,2,2,2,,,,,,,,,,,,,,,,,,,,,,,,,,,,,,,,,,,,,,,,,,,,,,,,,,,,,,,,,,,,,,,,,,,,,,,,,,,,,,,,,,,,,,,,,,,,,,,,,,,,APFRRF,01,AP,FR,RF,2022-07-05_19h38.05.393,DigitSpanTask_visual,2022.1.3,58.904526987012645,
2,0,,,2,83,0.55,38.0,,,,,1,1,3,1,0,0,0,0,,,,,,,,,,,,,,,,,,,,,,,,,,,,,0,0,0,0,0,0,0,0,,,,,,,,,,,,,,,,,,,,,,,,,,,,,,,,,,,,,,,,,,,,,,,,,,,,,,,,986.4381776978626,None,986.9977042638639,None,,,,,,,,,,,,,,,,,,,,,,,,,,,,,,,,,APFRRF,01,AP,FR,RF,2022-07-05_19h38.05.393,DigitSpanTask_visual,2022.1.3,58.904526987012645,
2,0,,,2,83,0.55,38.0,,,,,1,1,3,1,0,0,0,0,,,,,,,,,,,,,,,,,,,,,,,,,,,,,0,0,0,0,1,0,1,0,,,,,,,,,,,,,,,,,,,,,,,,,,,,,,,,,,,,,,,,,,,,,,,,,,,,,,,,,,987.9982843559883,987.9982843559883,,,,,,,,,,,,,,,,,,,,,,,,,,,,,,,,,APFRRF,01,AP,FR,RF,2022-07-05_19h38.05.393,DigitSpanTask_visual,2022.1.3,58.904526987012645,
2,0,,,2,83,0.55,38.0,,,,,1,1,3,1,0,0,0,0,,,,,,,,,,,,,,,,,,,,,,,,,,,,,0,0,0,0,,,,,,,,,,,,,,,,,,,,,,,,,,,,,0,,,,,,,,,,,,,,,,,,,,,,,,,,,,,,,,,,,988.9982306163871,None,,988.9982306163871,None,988.9979702933742,None,,,,,,,,,,,,,,,,,,,,,,,,,,APFRRF,01,AP,FR,RF,2022-07-05_19h38.05.393,DigitSpanTask_visual,2022.1.3,58.904526987012645,
2,0,,,2,16,0.55,61.0,,,,,1,1,3,1,0,0,0,0,,,,,,,,,,,,,,,,,,,,,,,,,,,,,0,1,1,1,0,0,0,0,,,,,,,,,,,,,,,,,,,,,,,,,,,,,,,,,,,,,,,,,,,,,,,,,,,,,,,,990.4761965169855,None,991.0333550919204,None,,,,,,,,,,,,,,,,,,,,,,,,,,,,,,,,,APFRRF,01,AP,FR,RF,2022-07-05_19h38.05.393,DigitSpanTask_visual,2022.1.3,58.904526987012645,
2,0,,,2,16,0.55,61.0,,,,,1,1,3,1,0,0,0,0,,,,,,,,,,,,,,,,,,,,,,,,,,,,,0,1,1,1,1,0,1,0,,,,,,,,,,,,,,,,,,,,,,,,,,,,,,,,,,,,,,,,,,,,,,,,,,,,,,,,,,992.0336281005984,992.0336281005984,,,,,,,,,,,,,,,,,,,,,,,,,,,,,,,,,APFRRF,01,AP,FR,RF,2022-07-05_19h38.05.393,DigitSpanTask_visual,2022.1.3,58.904526987012645,
2,0,,,2,16,0.55,61.0,,,,,1,1,3,1,0,0,0,0,,,,,,,,,,,,,,,,,,,,,,,,,,,,,0,1,1,1,,,,,,,,,,,,,,,,,,,,,,,,,,,,,0,,,,,,,,,,,,,,,,,,,,,,,,,,,,,,,,,,,993.0336400062406,None,,993.0336400062406,None,994.1867560000355,None,,,,,,,,,,,,,,,,,,,,,,,,,,APFRRF,01,AP,FR,RF,2022-07-05_19h38.05.393,DigitSpanTask_visual,2022.1.3,58.904526987012645,
2,0,,,,,,,3,497.0,0.55,794.0,1,1,3,1,0,0,0,0,,,,,,,,,,,,,,,,,,,,,,,,,,,,,,,,,,,,,0,0,0,0,,,,,,,,,,,,,,,,,,,,,0,,,,,,,,,,,,,,,,,,,,,,,,,,,,,,,,,,,,,,,,,,995.7129188527906,None,996.8657285842164,None,999.4264600832576,None,1000.4270487967115,None,,1000.4270487967115,None,1000.9207199218363,None,,,,,,,,,,,,,APFRRF,01,AP,FR,RF,2022-07-05_19h38.05.393,DigitSpanTask_visual,2022.1.3,58.904526987012645,
2,0,,,,,,,3,235.0,0.55,532.0,1,1,3,1,0,0,0,0,,,,,,,,,,,,,,,,,,,,,,,,,,,,,,,,,,,,,0,1,1,1,,,,,,,,,,,,,,,,,,,,,0,,,,,,,,,,,,,,,,,,,,,,,,,,,,,,,,,,,,,,,,,,,,1002.4109449795142,None,1004.9732385808493,None,1005.9713907842157,None,,1005.9713907842157,None,1005.9713172566117,None,,,,,,,,,,,,,APFRRF,01,AP,FR,RF,2022-07-05_19h38.05.393,DigitSpanTask_visual,2022.1.3,58.904526987012645,
2,0,,,,,,,4,6081.0,0.55,1806.0,1,1,3,1,0,0,0,0,,,,,,,,,,,,,,,,,,,,,,,,,,,,,,,,,,,,,0,2,2,2,,,,,,,,,,,,,,,,,,,,,0,,,,,,,,,,,,,,,,,,,,,,,,,,,,,,,,,,,,,,,,,,,,1007.4463819165649,None,1011.0077628888866,1011.0077628888866,1012.0079673785436,None,,1012.0079673785436,None,1012.0079090408981,None,,,,,,,,,,,,,APFRRF,01,AP,FR,RF,2022-07-05_19h38.05.393,DigitSpanTask_visual,2022.1.3,58.904526987012645,
2,0,,,,,,,4,3168.0,0.55,8613.0,1,1,3,1,0,0,0,0,,,,,,,,,,,,,,,,,,,,,,,,,,,,,,,,,,,,,0,3,3,3,,,,,,,,,,,,,,,,,,,,,0,,,,,,,,,,,,,,,,,,,,,,,,,,,,,,,,,,,,,,,,,,,,1013.4834195466028,None,1017.0429021848904,1017.0429021848904,1018.043808286329,None,,1018.043808286329,None,1018.0437610332483,None,,,,,,,,,,,,,APFRRF,01,AP,FR,RF,2022-07-05_19h38.05.393,DigitSpanTask_visual,2022.1.3,58.904526987012645,
2,0,datasets/instruccion1_pasiva.png,datasets/instruccion1_activa.png,,,,,,,,,1,1,3,1,1,0,1,0,,,,,,,,,,,,,,,,,,,,,,,,,0,0,0,0,,,,,,,,,,,,,,,,,,,,,,,,,,,,,,,,,,,,,,,,,,,,,,,,,,,,,,,,,,,,,,,,,,,,,,,,,,,,,,,,,,,,,,,,1019.0777590298167,None,2.515625,2.310163723097503,1019.0777590298167,None,space,1.315660409109114,1021.8755852238683,None,,,APFRRF,01,AP,FR,RF,2022-07-05_19h38.05.393,DigitSpanTask_visual,2022.1.3,58.904526987012645,
2,0,datasets/instruccion2.png,datasets/instruccion2.png,,,,,,,,,1,1,3,1,1,0,1,0,,,,,,,,,,,,,,,,,,,,,,,,,0,1,1,1,,,,,,,,,,,,,,,,,,,,,,,,,,,,,,,,,,,,,,,,,,,,,,,,,,,,,,,,,,,,,,,,,,,,,,,,,,,,,,,,,,,,,,,,,,,,,,,,,,,,APFRRF,01,AP,FR,RF,2022-07-05_19h38.05.393,DigitSpanTask_visual,2022.1.3,58.904526987012645,
2,0,datasets/instruccion3.png,datasets/instruccion3.png,,,,,,,,,1,1,3,1,1,0,1,0,,,,,,,,,,,,,,,,,,,,,,,,,0,2,2,2,,,,,,,,,,,,,,,,,,,,,,,,,,,,,,,,,,,,,,,,,,,,,,,,,,,,,,,,,,,,,,,,,,,,,,,,,,,,,,,,,,,,,,,,,,,,,,,,,,,,APFRRF,01,AP,FR,RF,2022-07-05_19h38.05.393,DigitSpanTask_visual,2022.1.3,58.904526987012645,
2,0,,,2,72,0.75,27.0,,,,,1,1,3,1,1,0,1,0,,,,,,,,,,,,,,,,,,,,,,,,,,,,,0,0,0,0,0,0,0,0,,,,,,,,,,,,,,,,,,,,,,,,,,,,,,,,,,,,,,,,,,,,,,,,,,,,,,,,1028.894054568893,None,1029.6566971286884,None,,,,,,,,,,,,,,,,,,,,,,,,,,,,,,,,,APFRRF,01,AP,FR,RF,2022-07-05_19h38.05.393,DigitSpanTask_visual,2022.1.3,58.904526987012645,
2,0,,,2,72,0.75,27.0,,,,,1,1,3,1,1,0,1,0,,,,,,,,,,,,,,,,,,,,,,,,,,,,,0,0,0,0,1,0,1,0,,,,,,,,,,,,,,,,,,,,,,,,,,,,,,,,,,,,,,,,,,,,,,,,,,,,,,,,,,1030.6569253885755,1030.6569253885755,,,,,,,,,,,,,,,,,,,,,,,,,,,,,,,,,APFRRF,01,AP,FR,RF,2022-07-05_19h38.05.393,DigitSpanTask_visual,2022.1.3,58.904526987012645,
2,0,,,2,72,0.75,27.0,,,,,1,1,3,1,1,0,1,0,,,,,,,,,,,,,,,,,,,,,,,,,,,,,0,0,0,0,,,,,,,,,,,,,,,,,,,,,,,,,,,,,0,,,,,,,,,,,,,,,,,,,,,,,,,,,,,,,,,,,1031.6579932014683,None,,1031.6579932014683,None,1045.0224655352213,None,,,,,,,,,,,,,,,,,,,,,,,,,,APFRRF,01,AP,FR,RF,2022-07-05_19h38.05.393,DigitSpanTask_visual,2022.1.3,58.904526987012645,
2,0,,,2,81,0.35,18.0,,,,,1,1,3,1,1,0,1,0,,,,,,,,,,,,,,,,,,,,,,,,,,,,,0,1,1,1,0,0,0,0,,,,,,,,,,,,,,,,,,,,,,,,,,,,,,,,,,,,,,,,,,,,,,,,,,,,,,,,1046.4967078848204,None,1046.8528955341535,None,,,,,,,,,,,,,,,,,,,,,,,,,,,,,,,,,APFRRF,01,AP,FR,RF,2022-07-05_19h38.05.393,DigitSpanTask_visual,2022.1.3,58.904526987012645,
2,0,,,2,81,0.35,18.0,,,,,1,1,3,1,1,0,1,0,,,,,,,,,,,,,,,,,,,,,,,,,,,,,0,1,1,1,1,0,1,0,,,,,,,,,,,,,,,,,,,,,,,,,,,,,,,,,,,,,,,,,,,,,,,,,,,,,,,,,,1047.8529255035282,1047.8529255035282,,,,,,,,,,,,,,,,,,,,,,,,,,,,,,,,,APFRRF,01,AP,FR,RF,2022-07-05_19h38.05.393,DigitSpanTask_visual,2022.1.3,58.904526987012645,
2,0,,,2,81,0.35,18.0,,,,,1,1,3,1,1,0,1,0,,,,,,,,,,,,,,,,,,,,,,,,,,,,,0,1,1,1,,,,,,,,,,,,,,,,,,,,,,,,,,,,,0,,,,,,,,,,,,,,,,,,,,,,,,,,,,,,,,,,,1048.854360749152,None,,1048.854360749152,None,1052.1470465797975,None,,,,,,,,,,,,,,,,,,,,,,,,,,APFRRF,01,AP,FR,RF,2022-07-05_19h38.05.393,DigitSpanTask_visual,2022.1.3,58.904526987012645,
2,0,,,,,,,3,279.0,0.15,972.0,1,1,3,1,1,0,1,0,,,,,,,,,,,,,,,,,,,,,,,,,,,,,,,,,,,,,0,0,0,0,,,,,,,,,,,,,,,,,,,,,0,,,,,,,,,,,,,,,,,,,,,,,,,,,,,,,,,,,,,,,,,,1053.168997709192,None,1056.9355104235947,None,1059.0882158780223,1059.0882158780223,1060.1111925758082,None,,1060.1111925758082,None,1060.110550861722,None,,,,,,,,,,,,,APFRRF,01,AP,FR,RF,2022-07-05_19h38.05.393,DigitSpanTask_visual,2022.1.3,58.904526987012645,
2,0,,,,,,,3,148.0,0.95,841.0,1,1,3,1,1,0,1,0,,,,,,,,,,,,,,,,,,,,,,,,,,,,,,,,,,,,,0,1,1,1,,,,,,,,,,,,,,,,,,,,,0,,,,,,,,,,,,,,,,,,,,,,,,,,,,,,,,,,,,,,,,,,,,1061.59208069562,None,1064.5654407961192,1064.5654407961192,1065.566273780496,None,,1065.566273780496,None,1069.32176063913,None,,,,,,,,,,,,,APFRRF,01,AP,FR,RF,2022-07-05_19h38.05.393,DigitSpanTask_visual,2022.1.3,58.904526987012645,
2,0,,,,,,,4,1652.0,0.35,2561.0,1,1,3,1,1,0,1,0,,,,,,,,,,,,,,,,,,,,,,,,,,,,,,,,,,,,,0,2,2,2,,,,,,,,,,,,,,,,,,,,,0,,,,,,,,,,,,,,,,,,,,,,,,,,,,,,,,,,,,,,,,,,,,1070.7960912546914,None,1074.1594781223575,None,1075.1585995681125,None,,1075.1585995681125,None,1075.6840160603024,None,,,,,,,,,,,,,APFRRF,01,AP,FR,RF,2022-07-05_19h38.05.393,DigitSpanTask_visual,2022.1.3,58.904526987012645,
2,0,,,,,,,4,7093.0,0.55,3907.0,1,1,3,1,1,0,1,0,,,,,,,,,,,,,,,,,,,,,,,,,,,,,,,,,,,,,0,3,3,3,,,,,,,,,,,,,,,,,,,,,0,,,,,,,,,,,,,,,,,,,,,,,,,,,,,,,,,,,,,,,,,,,,1077.1588853035137,None,1080.738531582796,None,1081.7664761764026,None,,1081.7664761764026,None,1082.8145059979834,None,,,,,,,,,,,,,APFRRF,01,AP,FR,RF,2022-07-05_19h38.05.393,DigitSpanTask_visual,2022.1.3,58.904526987012645,
2,0,,,,,,,,,,,1,1,3,1,,,,,,,,,,,,,,,,,,,,,,,,,,,,,,,,,,,,,,,,,,,,,,,,,,,,,,,,,,,,,,,,,,,,,,,,,,,,,,,,,,,,,,,,,,,,,,,,,,,,,,,,,,,,,,,,,,,,,,,,1083.8485836391883,None,3.5104166865348816,3.6814423890100443,1083.8485836391883,None,space,1.6447820190805942,1088.0446555985254,None,,,APFRRF,01,AP,FR,RF,2022-07-05_19h38.05.393,DigitSpanTask_visual,2022.1.3,58.904526987012645,
,,,,,,,,,,,,,,,,,,,,,,,,,,,,,,,,,,,,,,,,,,,,,,,,,,,,,,,,,,,,,,,,,,,,,,,,,,,,,,,,,,,,,,,,,,,,,,,,,,,,,,,,,,,,,,,,,,,,,,,,,,,,,,,,,,,,,,,,,,,,,,,,,1089.7227266382579,None,,,,,,,,,,
