instrucciones_pasiva,instrucciones_activa,digitSpan_train,digits_train,fixation_time_train,answer_train,digitSpan,digits,fixation_time,answer,BlockPasivas.thisRepN,BlockPasivas.thisTrialN,BlockPasivas.thisN,BlockPasivas.thisIndex,instrucloop_Pasivas.thisRepN,instrucloop_Pasivas.thisTrialN,instrucloop_Pasivas.thisN,instrucloop_Pasivas.thisIndex,trial_trainingPasivas.thisRepN,trial_trainingPasivas.thisTrialN,trial_trainingPasivas.thisN,trial_trainingPasivas.thisIndex,train_digitloopPasivas.thisRepN,train_digitloopPasivas.thisTrialN,train_digitloopPasivas.thisN,train_digitloopPasivas.thisIndex,trial_Pasiva.thisRepN,trial_Pasiva.thisTrialN,trial_Pasiva.thisN,trial_Pasiva.thisIndex,digitLoop_Pasivas.thisRepN,digitLoop_Pasivas.thisTrialN,digitLoop_Pasivas.thisN,digitLoop_Pasivas.thisIndex,BlockActivas.thisRepN,BlockActivas.thisTrialN,BlockActivas.thisN,BlockActivas.thisIndex,intrLoopActivas.thisRepN,intrLoopActivas.thisTrialN,intrLoopActivas.thisN,intrLoopActivas.thisIndex,trial_train_Activas.thisRepN,trial_train_Activas.thisTrialN,trial_train_Activas.thisN,trial_train_Activas.thisIndex,train_digitloop_Activas.thisRepN,train_digitloop_Activas.thisTrialN,train_digitloop_Activas.thisN,train_digitloop_Activas.thisIndex,trialActivas.thisRepN,trialActivas.thisTrialN,trialActivas.thisN,trialActivas.thisIndex,digitLoop_Activas.thisRepN,digitLoop_Activas.thisTrialN,digitLoop_Activas.thisN,digitLoop_Activas.thisIndex,bienv2.started,bienv2.stopped,key_bienv.keys,key_bienv.rt,key_bienv.started,key_bienv.stopped,firstfixtrain.started,firstfixtrain.stopped,digitpresentation_training.started,digitpresentation_training.stopped,correct,recall_train.started,recall_train.stopped,answ_train.text,answ_train.started,answ_train.stopped,post_recall_training.started,post_recall_training.stopped,end_training.started,end_training.stopped,first_fix_pas.started,first_fix_pas.stopped,pres_text.started,pres_text.stopped,recall_txt.started,recall_txt.stopped,answer_box.text,answer_box.started,answer_box.stopped,postrecallPR.started,postrecallPR.stopped,Dificultad_pasivas.started,Dificultad_pasivas.stopped,dif_licker.response,dif_licker.rt,dif_licker.started,dif_licker.stopped,continuetrial_pasivas.keys,continuetrial_pasivas.rt,continuetrial_pasivas.started,continuetrial_pasivas.stopped,firstfix_activas.started,firstfix_activas.stopped,key_resp_5.keys,key_resp_5.rt,key_resp_5.started,key_resp_5.stopped,firsfixtrain_activa.started,firsfixtrain_activa.stopped,digitpresentation_training_2.started,digitpresentation_training_2.stopped,recall_train_2.started,recall_train_2.stopped,answ_train_2.text,answ_train_2.started,answ_train_2.stopped,post_recall_training_2.started,post_recall_training_2.stopped,end_training_2.started,end_training_2.stopped,first_fix_active.started,first_fix_active.stopped,pres_text_active.started,pres_text_active.stopped,recall_txt_2.started,recall_txt_2.stopped,answer_box_2.text,answer_box_2.started,answer_box_2.stopped,postrecallPR_2.started,postrecallPR_2.stopped,Dificultad_activas.started,Dificultad_activas.stopped,dif_licker_2.response,dif_licker_2.rt,dif_licker_2.started,dif_licker_2.stopped,key_resp_6.keys,key_resp_6.rt,key_resp_6.started,key_resp_6.stopped,text_2.started,text_2.stopped,participante,sesion,pasivas,activas,date,expName,psychopyVersion,frameRate,
,,,,,,,,,,,,,,,,,,,,,,,,,,,,,,,,,,,,,,,,,,,,,,,,,,,,,,,,,,42.179836769546455,None,space,10.301431999672786,42.36674795346153,None,,,,,,,,,,,,,,,,,,,,,,,,,,,,,,,,,,,,,,,,,,,,,,,,,,,,,,,,,,,,,,,,,,,,,,,,,,,,,,frrf,01,FR,RF,2022-07-05_17h52.15.283,DigitSpanTask_PR2,2022.1.3,58.96512908601819,
datasets/instruccion1_pasiva.png,datasets/instruccion1_activa.png,,,,,,,,,0,0,0,0,0,0,0,0,,,,,,,,,,,,,,,,,,,,,,,,,,,,,,,,,,,,,,,,,,,,,,,,,,,,,,,,,,,,,,,,,,,,,,,,,,,,,,,,,,,,,,,,,,,,,,,,,,,,,,,,,,,,,,,,,,,,,,,,,,,,frrf,01,FR,RF,2022-07-05_17h52.15.283,DigitSpanTask_PR2,2022.1.3,58.96512908601819,
datasets/instruccion2.png,datasets/instruccion2.png,,,,,,,,,0,0,0,0,0,1,1,1,,,,,,,,,,,,,,,,,,,,,,,,,,,,,,,,,,,,,,,,,,,,,,,,,,,,,,,,,,,,,,,,,,,,,,,,,,,,,,,,,,,,,,,,,,,,,,,,,,,,,,,,,,,,,,,,,,,,,,,,,,,,frrf,01,FR,RF,2022-07-05_17h52.15.283,DigitSpanTask_PR2,2022.1.3,58.96512908601819,
datasets/instruccion3.png,datasets/instruccion3.png,,,,,,,,,0,0,0,0,0,2,2,2,,,,,,,,,,,,,,,,,,,,,,,,,,,,,,,,,,,,,,,,,,,,,,,,,,,,,,,,,,,,,,,,,,,,,,,,,,,,,,,,,,,,,,,,,,,,,,,,,,,,,,,,,,,,,,,,,,,,,,,,,,,,frrf,01,FR,RF,2022-07-05_17h52.15.283,DigitSpanTask_PR2,2022.1.3,58.96512908601819,
,,2,83,0.55,38.0,,,,,0,0,0,0,,,,,0,0,0,0,0,0,0,0,,,,,,,,,,,,,,,,,,,,,,,,,,,,,,,,,,,,,,,84.7563547388545,None,85.31587268353178,None,,,,,,,,,,,,,,,,,,,,,,,,,,,,,,,,,,,,,,,,,,,,,,,,,,,,,,,,,,,,,,,,,,,,,,,,,,frrf,01,FR,RF,2022-07-05_17h52.15.283,DigitSpanTask_PR2,2022.1.3,58.96512908601819,
,,2,83,0.55,38.0,,,,,0,0,0,0,,,,,0,0,0,0,1,0,1,0,,,,,,,,,,,,,,,,,,,,,,,,,,,,,,,,,,,,,,,,,86.31591579016458,86.31591579016458,,,,,,,,,,,,,,,,,,,,,,,,,,,,,,,,,,,,,,,,,,,,,,,,,,,,,,,,,,,,,,,,,,,,,,,,,,frrf,01,FR,RF,2022-07-05_17h52.15.283,DigitSpanTask_PR2,2022.1.3,58.96512908601819,
,,2,83,0.55,38.0,,,,,0,0,0,0,,,,,0,0,0,0,,,,,,,,,,,,,,,,,,,,,,,,,,,,,,,,,,,,,,,,,,,,,,,0,87.31623313709497,None,,87.31623313709497,None,91.60447939502956,None,,,,,,,,,,,,,,,,,,,,,,,,,,,,,,,,,,,,,,,,,,,,,,,,,,,,,,,,,,,,,,,,,,frrf,01,FR,RF,2022-07-05_17h52.15.283,DigitSpanTask_PR2,2022.1.3,58.96512908601819,
,,2,16,0.55,61.0,,,,,0,0,0,0,,,,,0,1,1,1,0,0,0,0,,,,,,,,,,,,,,,,,,,,,,,,,,,,,,,,,,,,,,,93.07900337463252,None,93.63839282048684,None,,,,,,,,,,,,,,,,,,,,,,,,,,,,,,,,,,,,,,,,,,,,,,,,,,,,,,,,,,,,,,,,,,,,,,,,,,frrf,01,FR,RF,2022-07-05_17h52.15.283,DigitSpanTask_PR2,2022.1.3,58.96512908601819,
,,2,16,0.55,61.0,,,,,0,0,0,0,,,,,0,1,1,1,1,0,1,0,,,,,,,,,,,,,,,,,,,,,,,,,,,,,,,,,,,,,,,,,94.63862970170157,94.63862970170157,,,,,,,,,,,,,,,,,,,,,,,,,,,,,,,,,,,,,,,,,,,,,,,,,,,,,,,,,,,,,,,,,,,,,,,,,,frrf,01,FR,RF,2022-07-05_17h52.15.283,DigitSpanTask_PR2,2022.1.3,58.96512908601819,
,,2,16,0.55,61.0,,,,,0,0,0,0,,,,,0,1,1,1,,,,,,,,,,,,,,,,,,,,,,,,,,,,,,,,,,,,,,,,,,,,,,,1,95.63867568211026,None,61,95.63867568211026,None,97.99523445903105,None,,,,,,,,,,,,,,,,,,,,,,,,,,,,,,,,,,,,,,,,,,,,,,,,,,,,,,,,,,,,,,,,,,frrf,01,FR,RF,2022-07-05_17h52.15.283,DigitSpanTask_PR2,2022.1.3,58.96512908601819,
,,,,,,3,497.0,0.55,794.0,0,0,0,0,,,,,,,,,,,,,0,0,0,0,,,,,,,,,,,,,,,,,,,,,,,,,,,,,,,,,,,,,,,1,,,,,,,,98.99527838674476,None,114.03065784828141,None,116.590078905665,116.590078905665,117.59034165086086,None,794,117.59034165086086,None,119.86177098471853,None,,,,,,,,,,,,,,,,,,,,,,,,,,,,,,,,,,,,,,,,,,,,,,,,,,,,,frrf,01,FR,RF,2022-07-05_17h52.15.283,DigitSpanTask_PR2,2022.1.3,58.96512908601819,
,,,,,,3,235.0,0.55,532.0,0,0,0,0,,,,,,,,,,,,,0,1,1,1,,,,,,,,,,,,,,,,,,,,,,,,,,,,,,,,,,,,,,,0,,,,,,,,,,121.33770188273229,None,123.89720669014969,123.89720669014969,124.89742468655277,None,,124.89742468655277,None,127.20297066285639,None,,,,,,,,,,,,,,,,,,,,,,,,,,,,,,,,,,,,,,,,,,,,,,,,,,,,,frrf,01,FR,RF,2022-07-05_17h52.15.283,DigitSpanTask_PR2,2022.1.3,58.96512908601819,
,,,,,,4,6081.0,0.55,1806.0,0,0,0,0,,,,,,,,,,,,,0,2,2,2,,,,,,,,,,,,,,,,,,,,,,,,,,,,,,,,,,,,,,,1,,,,,,,,,,128.67751927482277,None,132.23710413741537,132.23710413741537,133.23719117176006,None,1806,133.23719117176006,None,137.77989342397996,None,,,,,,,,,,,,,,,,,,,,,,,,,,,,,,,,,,,,,,,,,,,,,,,,,,,,,frrf,01,FR,RF,2022-07-05_17h52.15.283,DigitSpanTask_PR2,2022.1.3,58.96512908601819,
,,,,,,4,3168.0,0.55,8613.0,0,0,0,0,,,,,,,,,,,,,0,3,3,3,,,,,,,,,,,,,,,,,,,,,,,,,,,,,,,,,,,,,,,0,,,,,,,,,,139.2551473425774,None,142.81470798334885,142.81470798334885,143.81445427001927,None,,143.81445427001927,None,145.290038672807,None,,,,,,,,,,,,,,,,,,,,,,,,,,,,,,,,,,,,,,,,,,,,,,,,,,,,,frrf,01,FR,RF,2022-07-05_17h52.15.283,DigitSpanTask_PR2,2022.1.3,58.96512908601819,
,,,,,,5,81423.0,0.55,32418.0,0,0,0,0,,,,,,,,,,,,,0,4,4,4,,,,,,,,,,,,,,,,,,,,,,,,,,,,,,,,,,,,,,,1,,,,,,,,,,146.7646344968016,None,151.32430721481796,151.32430721481796,152.3245071474903,None,32418,152.3245071474903,None,159.39382343522811,None,,,,,,,,,,,,,,,,,,,,,,,,,,,,,,,,,,,,,,,,,,,,,,,,,,,,,frrf,01,FR,RF,2022-07-05_17h52.15.283,DigitSpanTask_PR2,2022.1.3,58.96512908601819,
,,,,,,5,90736.0,0.55,63709.0,0,0,0,0,,,,,,,,,,,,,0,5,5,5,,,,,,,,,,,,,,,,,,,,,,,,,,,,,,,,,,,,,,,0,,,,,,,,,,160.8692013367163,None,165.42866714289266,165.42866714289266,166.42910518839562,None,63719,166.42910518839562,None,171.9548049527457,None,,,,,,,,,,,,,,,,,,,,,,,,,,,,,,,,,,,,,,,,,,,,,,,,,,,,,frrf,01,FR,RF,2022-07-05_17h52.15.283,DigitSpanTask_PR2,2022.1.3,58.96512908601819,
,,,,,,6,153624.0,0.55,426351.0,0,0,0,0,,,,,,,,,,,,,0,6,6,6,,,,,,,,,,,,,,,,,,,,,,,,,,,,,,,,,,,,,,,0,,,,,,,,,,173.42947426328647,None,178.98953658316168,None,179.9897714116796,None,,179.9897714116796,None,181.20990795707257,None,,,,,,,,,,,,,,,,,,,,,,,,,,,,,,,,,,,,,,,,,,,,,,,,,,,,,frrf,01,FR,RF,2022-07-05_17h52.15.283,DigitSpanTask_PR2,2022.1.3,58.96512908601819,
,,,,,,6,819703.0,0.55,307918.0,0,0,0,0,,,,,,,,,,,,,0,7,7,7,,,,,,,,,,,,,,,,,,,,,,,,,,,,,,,,,,,,,,,0,,,,,,,,,,182.68498411212568,None,188.24494954471083,188.24494954471083,189.24519751048865,None,6,189.24519751048865,None,191.71989884309914,None,,,,,,,,,,,,,,,,,,,,,,,,,,,,,,,,,,,,,,,,,,,,,,,,,,,,,frrf,01,FR,RF,2022-07-05_17h52.15.283,DigitSpanTask_PR2,2022.1.3,58.96512908601819,
,,,,,,7,1026597.0,0.55,7956201.0,0,0,0,0,,,,,,,,,,,,,0,8,8,8,,,,,,,,,,,,,,,,,,,,,,,,,,,,,,,,,,,,,,,0,,,,,,,,,,193.19572669573245,None,199.7542223973851,199.7542223973851,200.75458408256782,None,7,200.75458408256782,None,203.05968503419717,None,,,,,,,,,,,,,,,,,,,,,,,,,,,,,,,,,,,,,,,,,,,,,,,,,,,,,frrf,01,FR,RF,2022-07-05_17h52.15.283,DigitSpanTask_PR2,2022.1.3,58.96512908601819,
,,,,,,7,8765312.0,0.55,2135678.0,0,0,0,0,,,,,,,,,,,,,0,9,9,9,,,,,,,,,,,,,,,,,,,,,,,,,,,,,,,,,,,,,,,0,,,,,,,,,,204.53452882396778,None,211.09430089251146,None,212.09497130329692,None,7,212.09497130329692,None,214.04358162754215,None,,,,,,,,,,,,,,,,,,,,,,,,,,,,,,,,,,,,,,,,,,,,,,,,,,,,,frrf,01,FR,RF,2022-07-05_17h52.15.283,DigitSpanTask_PR2,2022.1.3,58.96512908601819,
,,,,,,,,,,0,0,0,0,,,,,,,,,,,,,,,,,,,,,,,,,,,,,,,,,,,,,,,,,,,,,,,,,,,,,,,,,,,,,,,,,,,,,,,,,,,,215.07763094153051,None,3.0052083334885538,5.673640498886016,215.07763094153051,None,space,9.528608884664209,221.24875976057228,None,,,,,,,,,,,,,,,,,,,,,,,,,,,,,,,,,,,,,,,,,,,frrf,01,FR,RF,2022-07-05_17h52.15.283,DigitSpanTask_PR2,2022.1.3,58.96512908601819,
datasets/instruccion1_pasiva.png,datasets/instruccion1_activa.png,,,,,,,,,1,0,1,0,0,0,0,0,,,,,,,,,,,,,,,,,,,,,,,,,,,,,,,,,,,,,,,,,,,,,,,,,,,,,,,,,,,,,,,,,,,,,,,,,,,,,,,,,,,,,,,,,,,,,,,,,,,,,,,,,,,,,,,,,,,,,,,,,,,,frrf,01,FR,RF,2022-07-05_17h52.15.283,DigitSpanTask_PR2,2022.1.3,58.96512908601819,
datasets/instruccion2.png,datasets/instruccion2.png,,,,,,,,,1,0,1,0,0,1,1,1,,,,,,,,,,,,,,,,,,,,,,,,,,,,,,,,,,,,,,,,,,,,,,,,,,,,,,,,,,,,,,,,,,,,,,,,,,,,,,,,,,,,,,,,,,,,,,,,,,,,,,,,,,,,,,,,,,,,,,,,,,,,frrf,01,FR,RF,2022-07-05_17h52.15.283,DigitSpanTask_PR2,2022.1.3,58.96512908601819,
datasets/instruccion3.png,datasets/instruccion3.png,,,,,,,,,1,0,1,0,0,2,2,2,,,,,,,,,,,,,,,,,,,,,,,,,,,,,,,,,,,,,,,,,,,,,,,,,,,,,,,,,,,,,,,,,,,,,,,,,,,,,,,,,,,,,,,,,,,,,,,,,,,,,,,,,,,,,,,,,,,,,,,,,,,,frrf,01,FR,RF,2022-07-05_17h52.15.283,DigitSpanTask_PR2,2022.1.3,58.96512908601819,
,,2,72,0.75,27.0,,,,,1,0,1,0,,,,,0,0,0,0,0,0,0,0,,,,,,,,,,,,,,,,,,,,,,,,,,,,,,,,,,,,,,,245.5049260618598,None,246.26768767807152,None,,,,,,,,,,,,,,,,,,,,,,,,,,,,,,,,,,,,,,,,,,,,,,,,,,,,,,,,,,,,,,,,,,,,,,,,,,frrf,01,FR,RF,2022-07-05_17h52.15.283,DigitSpanTask_PR2,2022.1.3,58.96512908601819,
,,2,72,0.75,27.0,,,,,1,0,1,0,,,,,0,0,0,0,1,0,1,0,,,,,,,,,,,,,,,,,,,,,,,,,,,,,,,,,,,,,,,,,247.26768767807152,247.26768767807152,,,,,,,,,,,,,,,,,,,,,,,,,,,,,,,,,,,,,,,,,,,,,,,,,,,,,,,,,,,,,,,,,,,,,,,,,,frrf,01,FR,RF,2022-07-05_17h52.15.283,DigitSpanTask_PR2,2022.1.3,58.96512908601819,
,,2,72,0.75,27.0,,,,,1,0,1,0,,,,,0,0,0,0,,,,,,,,,,,,,,,,,,,,,,,,,,,,,,,,,,,,,,,,,,,,,,,1,248.26787939995484,None,27,248.26787939995484,None,250.45431682143862,None,,,,,,,,,,,,,,,,,,,,,,,,,,,,,,,,,,,,,,,,,,,,,,,,,,,,,,,,,,,,,,,,,,frrf,01,FR,RF,2022-07-05_17h52.15.283,DigitSpanTask_PR2,2022.1.3,58.96512908601819,
,,2,81,0.35,18.0,,,,,1,0,1,0,,,,,0,1,1,1,0,0,0,0,,,,,,,,,,,,,,,,,,,,,,,,,,,,,,,,,,,,,,,251.92907029255002,None,252.28524808893962,None,,,,,,,,,,,,,,,,,,,,,,,,,,,,,,,,,,,,,,,,,,,,,,,,,,,,,,,,,,,,,,,,,,,,,,,,,,frrf,01,FR,RF,2022-07-05_17h52.15.283,DigitSpanTask_PR2,2022.1.3,58.96512908601819,
,,2,81,0.35,18.0,,,,,1,0,1,0,,,,,0,1,1,1,1,0,1,0,,,,,,,,,,,,,,,,,,,,,,,,,,,,,,,,,,,,,,,,,253.28519184504512,253.28519184504512,,,,,,,,,,,,,,,,,,,,,,,,,,,,,,,,,,,,,,,,,,,,,,,,,,,,,,,,,,,,,,,,,,,,,,,,,,frrf,01,FR,RF,2022-07-05_17h52.15.283,DigitSpanTask_PR2,2022.1.3,58.96512908601819,
,,2,81,0.35,18.0,,,,,1,0,1,0,,,,,0,1,1,1,,,,,,,,,,,,,,,,,,,,,,,,,,,,,,,,,,,,,,,,,,,,,,,1,254.30235731704306,None,18,254.30235731704306,None,255.33622270939486,None,,,,,,,,,,,,,,,,,,,,,,,,,,,,,,,,,,,,,,,,,,,,,,,,,,,,,,,,,,,,,,,,,,frrf,01,FR,RF,2022-07-05_17h52.15.283,DigitSpanTask_PR2,2022.1.3,58.96512908601819,
,,,,,,3,279.0,0.15,972.0,1,0,1,0,,,,,,,,,,,,,0,0,0,0,,,,,,,,,,,,,,,,,,,,,,,,,,,,,,,,,,,,,,,1,,,,,,,,256.3362292780257,None,259.0991349935539,None,261.25166884252394,261.25166884252394,262.25177517222073,None,972,262.25177517222073,None,268.0667947549482,None,,,,,,,,,,,,,,,,,,,,,,,,,,,,,,,,,,,,,,,,,,,,,,,,,,,,,frrf,01,FR,RF,2022-07-05_17h52.15.283,DigitSpanTask_PR2,2022.1.3,58.96512908601819,
,,,,,,3,148.0,0.95,841.0,1,0,1,0,,,,,,,,,,,,,0,1,1,1,,,,,,,,,,,,,,,,,,,,,,,,,,,,,,,,,,,,,,,1,,,,,,,,,,269.54114014992774,None,272.4904849290997,272.4904849290997,273.49057853207523,None,841,273.49057853207523,None,278.55878636352463,None,,,,,,,,,,,,,,,,,,,,,,,,,,,,,,,,,,,,,,,,,,,,,,,,,,,,,frrf,01,FR,RF,2022-07-05_17h52.15.283,DigitSpanTask_PR2,2022.1.3,58.96512908601819,
,,,,,,4,1652.0,0.35,2561.0,1,0,1,0,,,,,,,,,,,,,0,2,2,2,,,,,,,,,,,,,,,,,,,,,,,,,,,,,,,,,,,,,,,1,,,,,,,,,,280.03326272056256,None,283.3894770549541,None,284.38922334162635,None,2561,284.38922334162635,None,289.9662721383356,None,,,,,,,,,,,,,,,,,,,,,,,,,,,,,,,,,,,,,,,,,,,,,,,,,,,,,frrf,01,FR,RF,2022-07-05_17h52.15.283,DigitSpanTask_PR2,2022.1.3,58.96512908601819,
,,,,,,4,7093.0,0.55,3907.0,1,0,1,0,,,,,,,,,,,,,0,3,3,3,,,,,,,,,,,,,,,,,,,,,,,,,,,,,,,,,,,,,,,0,,,,,,,,,,291.4413786733003,None,295.00121724922064,295.00121724922064,296.00148245765195,None,,296.00148245765195,None,297.9509852944793,None,,,,,,,,,,,,,,,,,,,,,,,,,,,,,,,,,,,,,,,,,,,,,,,,,,,,,frrf,01,FR,RF,2022-07-05_17h52.15.283,DigitSpanTask_PR2,2022.1.3,58.96512908601819,
,,,,,,5,10256.0,0.95,65201.0,1,0,1,0,,,,,,,,,,,,,0,4,4,4,,,,,,,,,,,,,,,,,,,,,,,,,,,,,,,,,,,,,,,0,,,,,,,,,,299.4260745867923,None,304.37615176819236,304.37615176819236,305.3762404446952,None,,305.3762404446952,None,307.1899725759704,None,,,,,,,,,,,,,,,,,,,,,,,,,,,,,,,,,,,,,,,,,,,,,,,,,,,,,frrf,01,FR,RF,2022-07-05_17h52.15.283,DigitSpanTask_PR2,2022.1.3,58.96512908601819,
,,,,,,5,47319.0,0.35,91374.0,1,0,1,0,,,,,,,,,,,,,0,5,5,5,,,,,,,,,,,,,,,,,,,,,,,,,,,,,,,,,,,,,,,0,,,,,,,,,,308.66456922104226,None,313.0209494133396,313.0209494133396,314.02095269765414,None,,314.02095269765414,None,315.10589986123705,None,,,,,,,,,,,,,,,,,,,,,,,,,,,,,,,,,,,,,,,,,,,,,,,,,,,,,frrf,01,FR,RF,2022-07-05_17h52.15.283,DigitSpanTask_PR2,2022.1.3,58.96512908601819,
,,,,,,6,982506.0,0.55,605289.0,1,0,1,0,,,,,,,,,,,,,0,6,6,6,,,,,,,,,,,,,,,,,,,,,,,,,,,,,,,,,,,,,,,0,,,,,,,,,,316.58096287903027,None,322.14075670615966,322.14075670615966,323.14100138762296,None,,323.14100138762296,None,324.7005899450687,None,,,,,,,,,,,,,,,,,,,,,,,,,,,,,,,,,,,,,,,,,,,,,,,,,,,,,frrf,01,FR,RF,2022-07-05_17h52.15.283,DigitSpanTask_PR2,2022.1.3,58.96512908601819,
,,,,,,6,314795.0,0.95,597413.0,1,0,1,0,,,,,,,,,,,,,0,7,7,7,,,,,,,,,,,,,,,,,,,,,,,,,,,,,,,,,,,,,,,0,,,,,,,,,,326.1759559409147,None,332.1432018786272,None,333.143318471808,None,,333.143318471808,None,333.7877864538423,None,,,,,,,,,,,,,,,,,,,,,,,,,,,,,,,,,,,,,,,,,,,,,,,,,,,,,frrf,01,FR,RF,2022-07-05_17h52.15.283,DigitSpanTask_PR2,2022.1.3,58.96512908601819,
,,,,,,,,,,1,0,1,0,,,,,,,,,,,,,,,,,,,,,,,,,,,,,,,,,,,,,,,,,,,,,,,,,,,,,,,,,,,,,,,,,,,,,,,,,,,,334.8046538742601,None,3.9947916865348816,13.422765639495992,334.8046538742601,None,space,4.107630323029298,348.7211263558056,None,,,,,,,,,,,,,,,,,,,,,,,,,,,,,,,,,,,,,,,,,,,frrf,01,FR,RF,2022-07-05_17h52.15.283,DigitSpanTask_PR2,2022.1.3,58.96512908601819,
datasets/instruccion1_pasiva.png,datasets/instruccion1_activa.png,,,,,,,,,,,,,,,,,,,,,,,,,,,,,,,,,0,0,0,0,0,0,0,0,,,,,,,,,,,,,,,,,,,,,,,,,,,,,,,,,,,,,,,,,,,,,,,,,,,,,,,,,,,,,,,,,,,,,,,,,,,,,,,,,,,,,,,,,,,,,,,,,,,,frrf,01,FR,RF,2022-07-05_17h52.15.283,DigitSpanTask_PR2,2022.1.3,58.96512908601819,
datasets/instruccion2.png,datasets/instruccion2.png,,,,,,,,,,,,,,,,,,,,,,,,,,,,,,,,,0,0,0,0,0,1,1,1,,,,,,,,,,,,,,,,,,,,,,,,,,,,,,,,,,,,,,,,,,,,,,,,,,,,,,,,,,,,,,,,,,,,,,,,,,,,,,,,,,,,,,,,,,,,,,,,,,,,frrf,01,FR,RF,2022-07-05_17h52.15.283,DigitSpanTask_PR2,2022.1.3,58.96512908601819,
datasets/instruccion3.png,datasets/instruccion3.png,,,,,,,,,,,,,,,,,,,,,,,,,,,,,,,,,0,0,0,0,0,2,2,2,,,,,,,,,,,,,,,,,,,,,,,,,,,,,,,,,,,,,,,,,,,,,,,,,,,,,,,,,,,,,,,,,,,,,,,,,,,,,,,,,,,,,,,,,,,,,,,,,,,,frrf,01,FR,RF,2022-07-05_17h52.15.283,DigitSpanTask_PR2,2022.1.3,58.96512908601819,
,,2,25,0.75,25,,,,,,,,,,,,,,,,,,,,,,,,,,,,,0,0,0,0,,,,,0,0,0,0,0,0,0,0,,,,,,,,,,,,,,,,,,,,,,,,,,,,,,,,,,,,,,,,,,,,,,,,,,377.4051477531175,None,space,2.505441327126391,377.4051477531175,None,379.9303975663224,None,380.6934104326265,None,,,,,,,,,,,,,,,,,,,,,,,,,,,,,,,,,frrf,01,FR,RF,2022-07-05_17h52.15.283,DigitSpanTask_PR2,2022.1.3,58.96512908601819,
,,2,25,0.75,25,,,,,,,,,,,,,,,,,,,,,,,,,,,,,0,0,0,0,,,,,0,0,0,0,1,0,1,0,,,,,,,,,,,,,,,,,,,,,,,,,,,,,,,,,,,,,,,,,,,,,,,,,,,,,,,,,,381.6934038639956,381.6934038639956,,,,,,,,,,,,,,,,,,,,,,,,,,,,,,,,,frrf,01,FR,RF,2022-07-05_17h52.15.283,DigitSpanTask_PR2,2022.1.3,58.96512908601819,
,,2,25,0.75,25,,,,,,,,,,,,,,,,,,,,,,,,,,,,,0,0,0,0,,,,,0,0,0,0,,,,,,,,,,,,,,,,,,,,,,,0,,,,,,,,,,,,,,,,,,,,,,,,,,,,,,,,,,,,,,,,,382.6934568235738,None,52,382.6934568235738,None,384.8802497721499,None,,,,,,,,,,,,,,,,,,,,,,,,,,frrf,01,FR,RF,2022-07-05_17h52.15.283,DigitSpanTask_PR2,2022.1.3,58.96512908601819,
,,2,68,0.35,86.0,,,,,,,,,,,,,,,,,,,,,,,,,,,,,0,0,0,0,,,,,0,1,1,1,0,0,0,0,,,,,,,,,,,,,,,,,,,,,,,,,,,,,,,,,,,,,,,,,,,,,,,,,,386.3564306886383,None,space,1.3734598999271839,386.3564306886383,None,387.7465929337959,None,388.1024513305583,None,,,,,,,,,,,,,,,,,,,,,,,,,,,,,,,,,frrf,01,FR,RF,2022-07-05_17h52.15.283,DigitSpanTask_PR2,2022.1.3,58.96512908601819,
,,2,68,0.35,86.0,,,,,,,,,,,,,,,,,,,,,,,,,,,,,0,0,0,0,,,,,0,1,1,1,1,0,1,0,,,,,,,,,,,,,,,,,,,,,,,,,,,,,,,,,,,,,,,,,,,,,,,,,,,,,,,,,,389.1024164347109,389.1024164347109,,,,,,,,,,,,,,,,,,,,,,,,,,,,,,,,,frrf,01,FR,RF,2022-07-05_17h52.15.283,DigitSpanTask_PR2,2022.1.3,58.96512908601819,
,,2,68,0.35,86.0,,,,,,,,,,,,,,,,,,,,,,,,,,,,,0,0,0,0,,,,,0,1,1,1,,,,,,,,,,,,,,,,,,,,,,,1,,,,,,,,,,,,,,,,,,,,,,,,,,,,,,,,,,,,,,,,,390.10246200458096,None,86,390.10246200458096,None,391.62867822745466,None,,,,,,,,,,,,,,,,,,,,,,,,,,frrf,01,FR,RF,2022-07-05_17h52.15.283,DigitSpanTask_PR2,2022.1.3,58.96512908601819,
,,,,,,3,349,0.15,943,,,,,,,,,,,,,,,,,,,,,,,,,0,0,0,0,,,,,,,,,,,,,0,0,0,0,0,0,0,0,,,,,,,,,,,,,,,,,,,,,,,,,,,,,,,,,,,,,,,,,,395.8998448161183,None,space,0.8423619534460158,395.8998448161183,None,,,,,,,,,,,,392.62833091115135,None,396.76453268303885,None,397.47655656000825,None,,,,,,,,,,,,,,,,,,,,frrf,01,FR,RF,2022-07-05_17h52.15.283,DigitSpanTask_PR2,2022.1.3,58.96512908601819,
,,,,,,3,349,0.15,943,,,,,,,,,,,,,,,,,,,,,,,,,0,0,0,0,,,,,,,,,,,,,0,0,0,0,1,0,1,0,,,,,,,,,,,,,,,,,,,,,,,,,,,,,,,,,,,,,,,,,,,,,,,,,,,,,,,,,,,,,,,397.93502762929893,None,,,,,,,,,,,,,,,,,,,,frrf,01,FR,RF,2022-07-05_17h52.15.283,DigitSpanTask_PR2,2022.1.3,58.96512908601819,
,,,,,,3,349,0.15,943,,,,,,,,,,,,,,,,,,,,,,,,,0,0,0,0,,,,,,,,,,,,,0,0,0,0,2,0,2,0,,,,,,,,,,,,,,,,,,,,,,,,,,,,,,,,,,,,,,,,,,,,,,,,,,,,,,,,,,,,,,,398.93481579098625,None,,,,,,,,,,,,,,,,,,,,frrf,01,FR,RF,2022-07-05_17h52.15.283,DigitSpanTask_PR2,2022.1.3,58.96512908601819,
,,,,,,3,349,0.15,943,,,,,,,,,,,,,,,,,,,,,,,,,0,0,0,0,,,,,,,,,,,,,0,0,0,0,,,,,,,,,,,,,,,1,,,,,,,,,,,,,,,,,,,,,,,,,,,,,,,,,,,,,,,,,,,,,,,,,,,,,,399.9348708032612,None,943,399.9348708032612,None,402.49462480807233,None,,,,,,,,,,,,,frrf,01,FR,RF,2022-07-05_17h52.15.283,DigitSpanTask_PR2,2022.1.3,58.96512908601819,
,,,,,,3,256.0,0.95,652.0,,,,,,,,,,,,,,,,,,,,,,,,,0,0,0,0,,,,,,,,,,,,,0,1,1,1,0,0,0,0,,,,,,,,,,,,,,,,,,,,,,,,,,,,,,,,,,,,,,,,,,403.96950965178075,None,space,0.5409566771941172,403.96950965178075,None,,,,,,,,,,,,,,404.52853946514915,None,405.47803942820065,None,,,,,,,,,,,,,,,,,,,,frrf,01,FR,RF,2022-07-05_17h52.15.283,DigitSpanTask_PR2,2022.1.3,58.96512908601819,
,,,,,,3,256.0,0.95,652.0,,,,,,,,,,,,,,,,,,,,,,,,,0,0,0,0,,,,,,,,,,,,,0,1,1,1,1,0,1,0,,,,,,,,,,,,,,,,,,,,,,,,,,,,,,,,,,,,,,,,,,,,,,,,,,,,,,,,,,,,,,,406.47834897488246,406.47834897488246,,,,,,,,,,,,,,,,,,,,frrf,01,FR,RF,2022-07-05_17h52.15.283,DigitSpanTask_PR2,2022.1.3,58.96512908601819,
,,,,,,3,256.0,0.95,652.0,,,,,,,,,,,,,,,,,,,,,,,,,0,0,0,0,,,,,,,,,,,,,0,1,1,1,2,0,2,0,,,,,,,,,,,,,,,,,,,,,,,,,,,,,,,,,,,,,,,,,,,,,,,,,,,,,,,,,,,,,,,407.4782040544869,407.4782040544869,,,,,,,,,,,,,,,,,,,,frrf,01,FR,RF,2022-07-05_17h52.15.283,DigitSpanTask_PR2,2022.1.3,58.96512908601819,
,,,,,,3,256.0,0.95,652.0,,,,,,,,,,,,,,,,,,,,,,,,,0,0,0,0,,,,,,,,,,,,,0,1,1,1,,,,,,,,,,,,,,,1,,,,,,,,,,,,,,,,,,,,,,,,,,,,,,,,,,,,,,,,,,,,,,,,,,,,,,408.47812851524213,None,652,408.47812851524213,None,410.6143044231503,None,,,,,,,,,,,,,frrf,01,FR,RF,2022-07-05_17h52.15.283,DigitSpanTask_PR2,2022.1.3,58.96512908601819,
,,,,,,4,1502.0,0.35,2051.0,,,,,,,,,,,,,,,,,,,,,,,,,0,0,0,0,,,,,,,,,,,,,0,2,2,2,0,0,0,0,,,,,,,,,,,,,,,,,,,,,,,,,,,,,,,,,,,,,,,,,,412.0887770853333,None,space,2.68304394144252,412.0887770853333,None,,,,,,,,,,,,,,414.80194472497897,None,415.15711998423467,None,,,,,,,,,,,,,,,,,,,,frrf,01,FR,RF,2022-07-05_17h52.15.283,DigitSpanTask_PR2,2022.1.3,58.96512908601819,
,,,,,,4,1502.0,0.35,2051.0,,,,,,,,,,,,,,,,,,,,,,,,,0,0,0,0,,,,,,,,,,,,,0,2,2,2,1,0,1,0,,,,,,,,,,,,,,,,,,,,,,,,,,,,,,,,,,,,,,,,,,,,,,,,,,,,,,,,,,,,,,,416.15729158969043,416.15729158969043,,,,,,,,,,,,,,,,,,,,frrf,01,FR,RF,2022-07-05_17h52.15.283,DigitSpanTask_PR2,2022.1.3,58.96512908601819,
,,,,,,4,1502.0,0.35,2051.0,,,,,,,,,,,,,,,,,,,,,,,,,0,0,0,0,,,,,,,,,,,,,0,2,2,2,2,0,2,0,,,,,,,,,,,,,,,,,,,,,,,,,,,,,,,,,,,,,,,,,,,,,,,,,,,,,,,,,,,,,,,417.157402024779,417.157402024779,,,,,,,,,,,,,,,,,,,,frrf,01,FR,RF,2022-07-05_17h52.15.283,DigitSpanTask_PR2,2022.1.3,58.96512908601819,
,,,,,,4,1502.0,0.35,2051.0,,,,,,,,,,,,,,,,,,,,,,,,,0,0,0,0,,,,,,,,,,,,,0,2,2,2,3,0,3,0,,,,,,,,,,,,,,,,,,,,,,,,,,,,,,,,,,,,,,,,,,,,,,,,,,,,,,,,,,,,,,,418.1572985688599,418.1572985688599,,,,,,,,,,,,,,,,,,,,frrf,01,FR,RF,2022-07-05_17h52.15.283,DigitSpanTask_PR2,2022.1.3,58.96512908601819,
,,,,,,4,1502.0,0.35,2051.0,,,,,,,,,,,,,,,,,,,,,,,,,0,0,0,0,,,,,,,,,,,,,0,2,2,2,,,,,,,,,,,,,,,1,,,,,,,,,,,,,,,,,,,,,,,,,,,,,,,,,,,,,,,,,,,,,,,,,,,,,,419.157270652182,None,2051,419.157270652182,None,422.6828008637749,None,,,,,,,,,,,,,frrf,01,FR,RF,2022-07-05_17h52.15.283,DigitSpanTask_PR2,2022.1.3,58.96512908601819,
,,,,,,4,3769.0,0.55,9673.0,,,,,,,,,,,,,,,,,,,,,,,,,0,0,0,0,,,,,,,,,,,,,0,3,3,3,0,0,0,0,,,,,,,,,,,,,,,,,,,,,,,,,,,,,,,,,,,,,,,,,,424.1578811242198,None,space,4.053618942878529,424.1578811242198,None,,,,,,,,,,,,,,428.24314111880085,None,428.8025367227456,None,,,,,,,,,,,,,,,,,,,,frrf,01,FR,RF,2022-07-05_17h52.15.283,DigitSpanTask_PR2,2022.1.3,58.96512908601819,
,,,,,,4,3769.0,0.55,9673.0,,,,,,,,,,,,,,,,,,,,,,,,,0,0,0,0,,,,,,,,,,,,,0,3,3,3,1,0,1,0,,,,,,,,,,,,,,,,,,,,,,,,,,,,,,,,,,,,,,,,,,,,,,,,,,,,,,,,,,,,,,,429.8029805158003,429.8029805158003,,,,,,,,,,,,,,,,,,,,frrf,01,FR,RF,2022-07-05_17h52.15.283,DigitSpanTask_PR2,2022.1.3,58.96512908601819,
,,,,,,4,3769.0,0.55,9673.0,,,,,,,,,,,,,,,,,,,,,,,,,0,0,0,0,,,,,,,,,,,,,0,3,3,3,2,0,2,0,,,,,,,,,,,,,,,,,,,,,,,,,,,,,,,,,,,,,,,,,,,,,,,,,,,,,,,,,,,,,,,430.8026611161731,430.8026611161731,,,,,,,,,,,,,,,,,,,,frrf,01,FR,RF,2022-07-05_17h52.15.283,DigitSpanTask_PR2,2022.1.3,58.96512908601819,
,,,,,,4,3769.0,0.55,9673.0,,,,,,,,,,,,,,,,,,,,,,,,,0,0,0,0,,,,,,,,,,,,,0,3,3,3,3,0,3,0,,,,,,,,,,,,,,,,,,,,,,,,,,,,,,,,,,,,,,,,,,,,,,,,,,,,,,,,,,,,,,,431.8027304973275,431.8027304973275,,,,,,,,,,,,,,,,,,,,frrf,01,FR,RF,2022-07-05_17h52.15.283,DigitSpanTask_PR2,2022.1.3,58.96512908601819,
,,,,,,4,3769.0,0.55,9673.0,,,,,,,,,,,,,,,,,,,,,,,,,0,0,0,0,,,,,,,,,,,,,0,3,3,3,,,,,,,,,,,,,,,1,,,,,,,,,,,,,,,,,,,,,,,,,,,,,,,,,,,,,,,,,,,,,,,,,,,,,,432.8027296762484,None,9673,432.8027296762484,None,437.5655992643133,None,,,,,,,,,,,,,frrf,01,FR,RF,2022-07-05_17h52.15.283,DigitSpanTask_PR2,2022.1.3,58.96512908601819,
,,,,,,5,80734.0,0.95,43708.0,,,,,,,,,,,,,,,,,,,,,,,,,0,0,0,0,,,,,,,,,,,,,0,4,4,4,0,0,0,0,,,,,,,,,,,,,,,,,,,,,,,,,,,,,,,,,,,,,,,,,,439.0401913934529,None,space,4.327613737239517,439.0401913934529,None,,,,,,,,,,,,,,443.396243154255,None,444.3455977863705,None,,,,,,,,,,,,,,,,,,,,frrf,01,FR,RF,2022-07-05_17h52.15.283,DigitSpanTask_PR2,2022.1.3,58.96512908601819,
,,,,,,5,80734.0,0.95,43708.0,,,,,,,,,,,,,,,,,,,,,,,,,0,0,0,0,,,,,,,,,,,,,0,4,4,4,1,0,1,0,,,,,,,,,,,,,,,,,,,,,,,,,,,,,,,,,,,,,,,,,,,,,,,,,,,,,,,,,,,,,,,445.34554605841186,445.34554605841186,,,,,,,,,,,,,,,,,,,,frrf,01,FR,RF,2022-07-05_17h52.15.283,DigitSpanTask_PR2,2022.1.3,58.96512908601819,
,,,,,,5,80734.0,0.95,43708.0,,,,,,,,,,,,,,,,,,,,,,,,,0,0,0,0,,,,,,,,,,,,,0,4,4,4,2,0,2,0,,,,,,,,,,,,,,,,,,,,,,,,,,,,,,,,,,,,,,,,,,,,,,,,,,,,,,,,,,,,,,,446.34588311123116,446.34588311123116,,,,,,,,,,,,,,,,,,,,frrf,01,FR,RF,2022-07-05_17h52.15.283,DigitSpanTask_PR2,2022.1.3,58.96512908601819,
,,,,,,5,80734.0,0.95,43708.0,,,,,,,,,,,,,,,,,,,,,,,,,0,0,0,0,,,,,,,,,,,,,0,4,4,4,3,0,3,0,,,,,,,,,,,,,,,,,,,,,,,,,,,,,,,,,,,,,,,,,,,,,,,,,,,,,,,,,,,,,,,447.3466803786814,447.3466803786814,,,,,,,,,,,,,,,,,,,,frrf,01,FR,RF,2022-07-05_17h52.15.283,DigitSpanTask_PR2,2022.1.3,58.96512908601819,
,,,,,,5,80734.0,0.95,43708.0,,,,,,,,,,,,,,,,,,,,,,,,,0,0,0,0,,,,,,,,,,,,,0,4,4,4,4,0,4,0,,,,,,,,,,,,,,,,,,,,,,,,,,,,,,,,,,,,,,,,,,,,,,,,,,,,,,,,,,,,,,,448.3458761320617,448.3458761320617,,,,,,,,,,,,,,,,,,,,frrf,01,FR,RF,2022-07-05_17h52.15.283,DigitSpanTask_PR2,2022.1.3,58.96512908601819,
,,,,,,5,80734.0,0.95,43708.0,,,,,,,,,,,,,,,,,,,,,,,,,0,0,0,0,,,,,,,,,,,,,0,4,4,4,,,,,,,,,,,,,,,0,,,,,,,,,,,,,,,,,,,,,,,,,,,,,,,,,,,,,,,,,,,,,,,,,,,,,,449.34580510875094,None,,449.34580510875094,None,452.53293346799,None,,,,,,,,,,,,,frrf,01,FR,RF,2022-07-05_17h52.15.283,DigitSpanTask_PR2,2022.1.3,58.96512908601819,
,,,,,,5,23569.0,0.35,96532.0,,,,,,,,,,,,,,,,,,,,,,,,,0,0,0,0,,,,,,,,,,,,,0,5,5,5,0,0,0,0,,,,,,,,,,,,,,,,,,,,,,,,,,,,,,,,,,,,,,,,,,454.00767954939147,None,space,2.4936682897114224,454.00767954939147,None,,,,,,,,,,,,,,456.5333961458564,None,456.88927178527047,None,,,,,,,,,,,,,,,,,,,,frrf,01,FR,RF,2022-07-05_17h52.15.283,DigitSpanTask_PR2,2022.1.3,58.96512908601819,
,,,,,,5,23569.0,0.35,96532.0,,,,,,,,,,,,,,,,,,,,,,,,,0,0,0,0,,,,,,,,,,,,,0,5,5,5,1,0,1,0,,,,,,,,,,,,,,,,,,,,,,,,,,,,,,,,,,,,,,,,,,,,,,,,,,,,,,,,,,,,,,,457.8894105475774,457.8894105475774,,,,,,,,,,,,,,,,,,,,frrf,01,FR,RF,2022-07-05_17h52.15.283,DigitSpanTask_PR2,2022.1.3,58.96512908601819,
,,,,,,5,23569.0,0.35,96532.0,,,,,,,,,,,,,,,,,,,,,,,,,0,0,0,0,,,,,,,,,,,,,0,5,5,5,2,0,2,0,,,,,,,,,,,,,,,,,,,,,,,,,,,,,,,,,,,,,,,,,,,,,,,,,,,,,,,,,,,,,,,458.89013597063786,None,,,,,,,,,,,,,,,,,,,,frrf,01,FR,RF,2022-07-05_17h52.15.283,DigitSpanTask_PR2,2022.1.3,58.96512908601819,
,,,,,,5,23569.0,0.35,96532.0,,,,,,,,,,,,,,,,,,,,,,,,,0,0,0,0,,,,,,,,,,,,,0,5,5,5,3,0,3,0,,,,,,,,,,,,,,,,,,,,,,,,,,,,,,,,,,,,,,,,,,,,,,,,,,,,,,,,,,,,,,,459.89061219630275,459.89061219630275,,,,,,,,,,,,,,,,,,,,frrf,01,FR,RF,2022-07-05_17h52.15.283,DigitSpanTask_PR2,2022.1.3,58.96512908601819,
,,,,,,5,23569.0,0.35,96532.0,,,,,,,,,,,,,,,,,,,,,,,,,0,0,0,0,,,,,,,,,,,,,0,5,5,5,4,0,4,0,,,,,,,,,,,,,,,,,,,,,,,,,,,,,,,,,,,,,,,,,,,,,,,,,,,,,,,,,,,,,,,460.8899040158958,460.8899040158958,,,,,,,,,,,,,,,,,,,,frrf,01,FR,RF,2022-07-05_17h52.15.283,DigitSpanTask_PR2,2022.1.3,58.96512908601819,
,,,,,,5,23569.0,0.35,96532.0,,,,,,,,,,,,,,,,,,,,,,,,,0,0,0,0,,,,,,,,,,,,,0,5,5,5,,,,,,,,,,,,,,,1,,,,,,,,,,,,,,,,,,,,,,,,,,,,,,,,,,,,,,,,,,,,,,,,,,,,,,461.88990771074896,None,96532,461.88990771074896,None,468.41567808787113,None,,,,,,,,,,,,,frrf,01,FR,RF,2022-07-05_17h52.15.283,DigitSpanTask_PR2,2022.1.3,58.96512908601819,
,,,,,,6,741802.0,0.55,208147.0,,,,,,,,,,,,,,,,,,,,,,,,,0,0,0,0,,,,,,,,,,,,,0,6,6,6,0,0,0,0,,,,,,,,,,,,,,,,,,,,,,,,,,,,,,,,,,,,,,,,,,469.8903773677848,None,space,7.932775859235335,469.8903773677848,None,,,,,,,,,,,,,,477.84006782110373,None,478.3994474140127,None,,,,,,,,,,,,,,,,,,,,frrf,01,FR,RF,2022-07-05_17h52.15.283,DigitSpanTask_PR2,2022.1.3,58.96512908601819,
,,,,,,6,741802.0,0.55,208147.0,,,,,,,,,,,,,,,,,,,,,,,,,0,0,0,0,,,,,,,,,,,,,0,6,6,6,1,0,1,0,,,,,,,,,,,,,,,,,,,,,,,,,,,,,,,,,,,,,,,,,,,,,,,,,,,,,,,,,,,,,,,479.39943263459463,479.39943263459463,,,,,,,,,,,,,,,,,,,,frrf,01,FR,RF,2022-07-05_17h52.15.283,DigitSpanTask_PR2,2022.1.3,58.96512908601819,
,,,,,,6,741802.0,0.55,208147.0,,,,,,,,,,,,,,,,,,,,,,,,,0,0,0,0,,,,,,,,,,,,,0,6,6,6,2,0,2,0,,,,,,,,,,,,,,,,,,,,,,,,,,,,,,,,,,,,,,,,,,,,,,,,,,,,,,,,,,,,,,,480.39965925232536,480.39965925232536,,,,,,,,,,,,,,,,,,,,frrf,01,FR,RF,2022-07-05_17h52.15.283,DigitSpanTask_PR2,2022.1.3,58.96512908601819,
,,,,,,6,741802.0,0.55,208147.0,,,,,,,,,,,,,,,,,,,,,,,,,0,0,0,0,,,,,,,,,,,,,0,6,6,6,3,0,3,0,,,,,,,,,,,,,,,,,,,,,,,,,,,,,,,,,,,,,,,,,,,,,,,,,,,,,,,,,,,,,,,481.39952090055885,481.39952090055885,,,,,,,,,,,,,,,,,,,,frrf,01,FR,RF,2022-07-05_17h52.15.283,DigitSpanTask_PR2,2022.1.3,58.96512908601819,
,,,,,,6,741802.0,0.55,208147.0,,,,,,,,,,,,,,,,,,,,,,,,,0,0,0,0,,,,,,,,,,,,,0,6,6,6,4,0,4,0,,,,,,,,,,,,,,,,,,,,,,,,,,,,,,,,,,,,,,,,,,,,,,,,,,,,,,,,,,,,,,,482.39968799008057,482.39968799008057,,,,,,,,,,,,,,,,,,,,frrf,01,FR,RF,2022-07-05_17h52.15.283,DigitSpanTask_PR2,2022.1.3,58.96512908601819,
,,,,,,6,741802.0,0.55,208147.0,,,,,,,,,,,,,,,,,,,,,,,,,0,0,0,0,,,,,,,,,,,,,0,6,6,6,5,0,5,0,,,,,,,,,,,,,,,,,,,,,,,,,,,,,,,,,,,,,,,,,,,,,,,,,,,,,,,,,,,,,,,483.399688400621,483.399688400621,,,,,,,,,,,,,,,,,,,,frrf,01,FR,RF,2022-07-05_17h52.15.283,DigitSpanTask_PR2,2022.1.3,58.96512908601819,
,,,,,,6,741802.0,0.55,208147.0,,,,,,,,,,,,,,,,,,,,,,,,,0,0,0,0,,,,,,,,,,,,,0,6,6,6,,,,,,,,,,,,,,,0,,,,,,,,,,,,,,,,,,,,,,,,,,,,,,,,,,,,,,,,,,,,,,,,,,,,,,484.3997323283329,None,6,484.3997323283329,None,488.38348646451595,None,,,,,,,,,,,,,frrf,01,FR,RF,2022-07-05_17h52.15.283,DigitSpanTask_PR2,2022.1.3,58.96512908601819,
,,,,,,6,956374.0,0.95,473659.0,,,,,,,,,,,,,,,,,,,,,,,,,0,0,0,0,,,,,,,,,,,,,0,7,7,7,0,0,0,0,,,,,,,,,,,,,,,,,,,,,,,,,,,,,,,,,,,,,,,,,,489.8582649785276,None,space,2.805325965564407,489.8582649785276,None,,,,,,,,,,,,,,492.69217429859236,None,493.64128999679815,None,,,,,,,,,,,,,,,,,,,,frrf,01,FR,RF,2022-07-05_17h52.15.283,DigitSpanTask_PR2,2022.1.3,58.96512908601819,
,,,,,,6,956374.0,0.95,473659.0,,,,,,,,,,,,,,,,,,,,,,,,,0,0,0,0,,,,,,,,,,,,,0,7,7,7,1,0,1,0,,,,,,,,,,,,,,,,,,,,,,,,,,,,,,,,,,,,,,,,,,,,,,,,,,,,,,,,,,,,,,,494.64147104465883,494.64147104465883,,,,,,,,,,,,,,,,,,,,frrf,01,FR,RF,2022-07-05_17h52.15.283,DigitSpanTask_PR2,2022.1.3,58.96512908601819,
,,,,,,6,956374.0,0.95,473659.0,,,,,,,,,,,,,,,,,,,,,,,,,0,0,0,0,,,,,,,,,,,,,0,7,7,7,2,0,2,0,,,,,,,,,,,,,,,,,,,,,,,,,,,,,,,,,,,,,,,,,,,,,,,,,,,,,,,,,,,,,,,495.6420158303972,495.6420158303972,,,,,,,,,,,,,,,,,,,,frrf,01,FR,RF,2022-07-05_17h52.15.283,DigitSpanTask_PR2,2022.1.3,58.96512908601819,
,,,,,,6,956374.0,0.95,473659.0,,,,,,,,,,,,,,,,,,,,,,,,,0,0,0,0,,,,,,,,,,,,,0,7,7,7,3,0,3,0,,,,,,,,,,,,,,,,,,,,,,,,,,,,,,,,,,,,,,,,,,,,,,,,,,,,,,,,,,,,,,,496.6424009163238,None,,,,,,,,,,,,,,,,,,,,frrf,01,FR,RF,2022-07-05_17h52.15.283,DigitSpanTask_PR2,2022.1.3,58.96512908601819,
,,,,,,6,956374.0,0.95,473659.0,,,,,,,,,,,,,,,,,,,,,,,,,0,0,0,0,,,,,,,,,,,,,0,7,7,7,4,0,4,0,,,,,,,,,,,,,,,,,,,,,,,,,,,,,,,,,,,,,,,,,,,,,,,,,,,,,,,,,,,,,,,497.6423167557532,497.6423167557532,,,,,,,,,,,,,,,,,,,,frrf,01,FR,RF,2022-07-05_17h52.15.283,DigitSpanTask_PR2,2022.1.3,58.96512908601819,
,,,,,,6,956374.0,0.95,473659.0,,,,,,,,,,,,,,,,,,,,,,,,,0,0,0,0,,,,,,,,,,,,,0,7,7,7,5,0,5,0,,,,,,,,,,,,,,,,,,,,,,,,,,,,,,,,,,,,,,,,,,,,,,,,,,,,,,,,,,,,,,,498.6424661920828,None,,,,,,,,,,,,,,,,,,,,frrf,01,FR,RF,2022-07-05_17h52.15.283,DigitSpanTask_PR2,2022.1.3,58.96512908601819,
,,,,,,6,956374.0,0.95,473659.0,,,,,,,,,,,,,,,,,,,,,,,,,0,0,0,0,,,,,,,,,,,,,0,7,7,7,,,,,,,,,,,,,,,0,,,,,,,,,,,,,,,,,,,,,,,,,,,,,,,,,,,,,,,,,,,,,,,,,,,,,,499.64242185383046,None,,499.64242185383046,None,500.86291392631574,None,,,,,,,,,,,,,frrf,01,FR,RF,2022-07-05_17h52.15.283,DigitSpanTask_PR2,2022.1.3,58.96512908601819,
,,,,,,,,,,,,,,,,,,,,,,,,,,,,,,,,,,0,0,0,0,,,,,,,,,,,,,,,,,,,,,,,,,,,,,,,,,,,,,,,,,,,,,,,,,,,,,,,,,,,,,,,,,,,,,,,,,,,,,,,,,,,,,,,,,,,,501.8819108144271,None,4.015625,9.899793088157821,501.8819108144271,None,space,5.964559816999099,512.0198491678366,None,,,frrf,01,FR,RF,2022-07-05_17h52.15.283,DigitSpanTask_PR2,2022.1.3,58.96512908601819,
datasets/instruccion1_pasiva.png,datasets/instruccion1_activa.png,,,,,,,,,,,,,,,,,,,,,,,,,,,,,,,,,1,0,1,0,0,0,0,0,,,,,,,,,,,,,,,,,,,,,,,,,,,,,,,,,,,,,,,,,,,,,,,,,,,,,,,,,,,,,,,,,,,,,,,,,,,,,,,,,,,,,,,,,,,,,,,,,,,,frrf,01,FR,RF,2022-07-05_17h52.15.283,DigitSpanTask_PR2,2022.1.3,58.96512908601819,
datasets/instruccion2.png,datasets/instruccion2.png,,,,,,,,,,,,,,,,,,,,,,,,,,,,,,,,,1,0,1,0,0,1,1,1,,,,,,,,,,,,,,,,,,,,,,,,,,,,,,,,,,,,,,,,,,,,,,,,,,,,,,,,,,,,,,,,,,,,,,,,,,,,,,,,,,,,,,,,,,,,,,,,,,,,frrf,01,FR,RF,2022-07-05_17h52.15.283,DigitSpanTask_PR2,2022.1.3,58.96512908601819,
datasets/instruccion3.png,datasets/instruccion3.png,,,,,,,,,,,,,,,,,,,,,,,,,,,,,,,,,1,0,1,0,0,2,2,2,,,,,,,,,,,,,,,,,,,,,,,,,,,,,,,,,,,,,,,,,,,,,,,,,,,,,,,,,,,,,,,,,,,,,,,,,,,,,,,,,,,,,,,,,,,,,,,,,,,,frrf,01,FR,RF,2022-07-05_17h52.15.283,DigitSpanTask_PR2,2022.1.3,58.96512908601819,
,,2,91,0.55,19,,,,,,,,,,,,,,,,,,,,,,,,,,,,,1,0,1,0,,,,,0,0,0,0,0,0,0,0,,,,,,,,,,,,,,,,,,,,,,,,,,,,,,,,,,,,,,,,,,,,,,,,,,524.7834252941502,None,space,1.3503933350748412,524.7834252941502,None,526.1567784154813,None,526.7160196566238,None,,,,,,,,,,,,,,,,,,,,,,,,,,,,,,,,,frrf,01,FR,RF,2022-07-05_17h52.15.283,DigitSpanTask_PR2,2022.1.3,58.96512908601819,
,,2,91,0.55,19,,,,,,,,,,,,,,,,,,,,,,,,,,,,,1,0,1,0,,,,,0,0,0,0,1,0,1,0,,,,,,,,,,,,,,,,,,,,,,,,,,,,,,,,,,,,,,,,,,,,,,,,,,,,,,,,,,527.7162060414976,527.7162060414976,,,,,,,,,,,,,,,,,,,,,,,,,,,,,,,,,frrf,01,FR,RF,2022-07-05_17h52.15.283,DigitSpanTask_PR2,2022.1.3,58.96512908601819,
,,2,91,0.55,19,,,,,,,,,,,,,,,,,,,,,,,,,,,,,1,0,1,0,,,,,0,0,0,0,,,,,,,,,,,,,,,,,,,,,,,1,,,,,,,,,,,,,,,,,,,,,,,,,,,,,,,,,,,,,,,,,528.7166596874977,None,19,528.7166596874977,None,530.6316727015947,None,,,,,,,,,,,,,,,,,,,,,,,,,,frrf,01,FR,RF,2022-07-05_17h52.15.283,DigitSpanTask_PR2,2022.1.3,58.96512908601819,
,,2,47,0.55,74,,,,,,,,,,,,,,,,,,,,,,,,,,,,,1,0,1,0,,,,,0,1,1,1,0,0,0,0,,,,,,,,,,,,,,,,,,,,,,,,,,,,,,,,,,,,,,,,,,,,,,,,,,532.1062069446834,None,space,3.4899348447106604,532.1062069446834,None,535.6146964882464,None,536.1741594206469,None,,,,,,,,,,,,,,,,,,,,,,,,,,,,,,,,,frrf,01,FR,RF,2022-07-05_17h52.15.283,DigitSpanTask_PR2,2022.1.3,58.96512908601819,
,,2,47,0.55,74,,,,,,,,,,,,,,,,,,,,,,,,,,,,,1,0,1,0,,,,,0,1,1,1,1,0,1,0,,,,,,,,,,,,,,,,,,,,,,,,,,,,,,,,,,,,,,,,,,,,,,,,,,,,,,,,,,537.17406622821,537.17406622821,,,,,,,,,,,,,,,,,,,,,,,,,,,,,,,,,frrf,01,FR,RF,2022-07-05_17h52.15.283,DigitSpanTask_PR2,2022.1.3,58.96512908601819,
,,2,47,0.55,74,,,,,,,,,,,,,,,,,,,,,,,,,,,,,1,0,1,0,,,,,0,1,1,1,,,,,,,,,,,,,,,,,,,,,,,0,,,,,,,,,,,,,,,,,,,,,,,,,,,,,,,,,,,,,,,,,538.1741828213908,None,47,538.1741828213908,None,541.157305137489,None,,,,,,,,,,,,,,,,,,,,,,,,,,frrf,01,FR,RF,2022-07-05_17h52.15.283,DigitSpanTask_PR2,2022.1.3,58.96512908601819,
,,,,,,3,385.0,0.55,583.0,,,,,,,,,,,,,,,,,,,,,,,,,1,0,1,0,,,,,,,,,,,,,0,0,0,0,0,0,0,0,,,,,,,,,,,,,,,,,,,,,,,,,,,,,,,,,,,,,,,,,,543.6493759801615,None,space,2.5280710780934896,543.6493759801615,None,,,,,,,,,,,,542.1579336732593,None,546.2093898563926,None,546.7688018819117,None,,,,,,,,,,,,,,,,,,,,frrf,01,FR,RF,2022-07-05_17h52.15.283,DigitSpanTask_PR2,2022.1.3,58.96512908601819,
,,,,,,3,385.0,0.55,583.0,,,,,,,,,,,,,,,,,,,,,,,,,1,0,1,0,,,,,,,,,,,,,0,0,0,0,1,0,1,0,,,,,,,,,,,,,,,,,,,,,,,,,,,,,,,,,,,,,,,,,,,,,,,,,,,,,,,,,,,,,,,547.7688170718684,547.7688170718684,,,,,,,,,,,,,,,,,,,,frrf,01,FR,RF,2022-07-05_17h52.15.283,DigitSpanTask_PR2,2022.1.3,58.96512908601819,
,,,,,,3,385.0,0.55,583.0,,,,,,,,,,,,,,,,,,,,,,,,,1,0,1,0,,,,,,,,,,,,,0,0,0,0,2,0,2,0,,,,,,,,,,,,,,,,,,,,,,,,,,,,,,,,,,,,,,,,,,,,,,,,,,,,,,,,,,,,,,,548.7686943205972,548.7686943205972,,,,,,,,,,,,,,,,,,,,frrf,01,FR,RF,2022-07-05_17h52.15.283,DigitSpanTask_PR2,2022.1.3,58.96512908601819,
,,,,,,3,385.0,0.55,583.0,,,,,,,,,,,,,,,,,,,,,,,,,1,0,1,0,,,,,,,,,,,,,0,0,0,0,,,,,,,,,,,,,,,1,,,,,,,,,,,,,,,,,,,,,,,,,,,,,,,,,,,,,,,,,,,,,,,,,,,,,,549.7690001724259,None,583,549.7690001724259,None,555.4137826276165,None,,,,,,,,,,,,,frrf,01,FR,RF,2022-07-05_17h52.15.283,DigitSpanTask_PR2,2022.1.3,58.96512908601819,
,,,,,,3,294.0,0.55,492.0,,,,,,,,,,,,,,,,,,,,,,,,,1,0,1,0,,,,,,,,,,,,,0,1,1,1,0,0,0,0,,,,,,,,,,,,,,,,,,,,,,,,,,,,,,,,,,,,,,,,,,556.8881924772759,None,space,1.8527506521186297,556.8881924772759,None,,,,,,,,,,,,,,558.7698212511586,None,559.3290957459903,None,,,,,,,,,,,,,,,,,,,,frrf,01,FR,RF,2022-07-05_17h52.15.283,DigitSpanTask_PR2,2022.1.3,58.96512908601819,
,,,,,,3,294.0,0.55,492.0,,,,,,,,,,,,,,,,,,,,,,,,,1,0,1,0,,,,,,,,,,,,,0,1,1,1,1,0,1,0,,,,,,,,,,,,,,,,,,,,,,,,,,,,,,,,,,,,,,,,,,,,,,,,,,,,,,,,,,,,,,,560.329065366077,560.329065366077,,,,,,,,,,,,,,,,,,,,frrf,01,FR,RF,2022-07-05_17h52.15.283,DigitSpanTask_PR2,2022.1.3,58.96512908601819,
,,,,,,3,294.0,0.55,492.0,,,,,,,,,,,,,,,,,,,,,,,,,1,0,1,0,,,,,,,,,,,,,0,1,1,1,2,0,2,0,,,,,,,,,,,,,,,,,,,,,,,,,,,,,,,,,,,,,,,,,,,,,,,,,,,,,,,,,,,,,,,561.3292661198284,561.3292661198284,,,,,,,,,,,,,,,,,,,,frrf,01,FR,RF,2022-07-05_17h52.15.283,DigitSpanTask_PR2,2022.1.3,58.96512908601819,
,,,,,,3,294.0,0.55,492.0,,,,,,,,,,,,,,,,,,,,,,,,,1,0,1,0,,,,,,,,,,,,,0,1,1,1,,,,,,,,,,,,,,,1,,,,,,,,,,,,,,,,,,,,,,,,,,,,,,,,,,,,,,,,,,,,,,,,,,,,,,562.3296175415253,None,492,562.3296175415253,None,564.8042979366292,None,,,,,,,,,,,,,frrf,01,FR,RF,2022-07-05_17h52.15.283,DigitSpanTask_PR2,2022.1.3,58.96512908601819,
,,,,,,4,1358.0,0.55,8531.0,,,,,,,,,,,,,,,,,,,,,,,,,1,0,1,0,,,,,,,,,,,,,0,2,2,2,0,0,0,0,,,,,,,,,,,,,,,,,,,,,,,,,,,,,,,,,,,,,,,,,,566.2787738831266,None,space,1.5874769455222122,566.2787738831266,None,,,,,,,,,,,,,,567.8892003514211,None,568.4485327323036,None,,,,,,,,,,,,,,,,,,,,frrf,01,FR,RF,2022-07-05_17h52.15.283,DigitSpanTask_PR2,2022.1.3,58.96512908601819,
,,,,,,4,1358.0,0.55,8531.0,,,,,,,,,,,,,,,,,,,,,,,,,1,0,1,0,,,,,,,,,,,,,0,2,2,2,1,0,1,0,,,,,,,,,,,,,,,,,,,,,,,,,,,,,,,,,,,,,,,,,,,,,,,,,,,,,,,,,,,,,,,569.4488340681983,569.4488340681983,,,,,,,,,,,,,,,,,,,,frrf,01,FR,RF,2022-07-05_17h52.15.283,DigitSpanTask_PR2,2022.1.3,58.96512908601819,
,,,,,,4,1358.0,0.55,8531.0,,,,,,,,,,,,,,,,,,,,,,,,,1,0,1,0,,,,,,,,,,,,,0,2,2,2,2,0,2,0,,,,,,,,,,,,,,,,,,,,,,,,,,,,,,,,,,,,,,,,,,,,,,,,,,,,,,,,,,,,,,,570.4487199382547,570.4487199382547,,,,,,,,,,,,,,,,,,,,frrf,01,FR,RF,2022-07-05_17h52.15.283,DigitSpanTask_PR2,2022.1.3,58.96512908601819,
,,,,,,4,1358.0,0.55,8531.0,,,,,,,,,,,,,,,,,,,,,,,,,1,0,1,0,,,,,,,,,,,,,0,2,2,2,3,0,3,0,,,,,,,,,,,,,,,,,,,,,,,,,,,,,,,,,,,,,,,,,,,,,,,,,,,,,,,,,,,,,,,571.4489141233753,571.4489141233753,,,,,,,,,,,,,,,,,,,,frrf,01,FR,RF,2022-07-05_17h52.15.283,DigitSpanTask_PR2,2022.1.3,58.96512908601819,
,,,,,,4,1358.0,0.55,8531.0,,,,,,,,,,,,,,,,,,,,,,,,,1,0,1,0,,,,,,,,,,,,,0,2,2,2,,,,,,,,,,,,,,,1,,,,,,,,,,,,,,,,,,,,,,,,,,,,,,,,,,,,,,,,,,,,,,,,,,,,,,572.4489469665241,None,8531,572.4489469665241,None,578.7543262638446,None,,,,,,,,,,,,,frrf,01,FR,RF,2022-07-05_17h52.15.283,DigitSpanTask_PR2,2022.1.3,58.96512908601819,
,,,,,,4,2047.0,0.55,7402.0,,,,,,,,,,,,,,,,,,,,,,,,,1,0,1,0,,,,,,,,,,,,,0,3,3,3,0,0,0,0,,,,,,,,,,,,,,,,,,,,,,,,,,,,,,,,,,,,,,,,,,580.2288637912479,None,space,1.2909254762016644,580.2288637912479,None,,,,,,,,,,,,,,581.5508432478582,None,582.1105993053661,None,,,,,,,,,,,,,,,,,,,,frrf,01,FR,RF,2022-07-05_17h52.15.283,DigitSpanTask_PR2,2022.1.3,58.96512908601819,
,,,,,,4,2047.0,0.55,7402.0,,,,,,,,,,,,,,,,,,,,,,,,,1,0,1,0,,,,,,,,,,,,,0,3,3,3,1,0,1,0,,,,,,,,,,,,,,,,,,,,,,,,,,,,,,,,,,,,,,,,,,,,,,,,,,,,,,,,,,,,,,,583.1104309842267,583.1104309842267,,,,,,,,,,,,,,,,,,,,frrf,01,FR,RF,2022-07-05_17h52.15.283,DigitSpanTask_PR2,2022.1.3,58.96512908601819,
,,,,,,4,2047.0,0.55,7402.0,,,,,,,,,,,,,,,,,,,,,,,,,1,0,1,0,,,,,,,,,,,,,0,3,3,3,2,0,2,0,,,,,,,,,,,,,,,,,,,,,,,,,,,,,,,,,,,,,,,,,,,,,,,,,,,,,,,,,,,,,,,584.110506112931,584.110506112931,,,,,,,,,,,,,,,,,,,,frrf,01,FR,RF,2022-07-05_17h52.15.283,DigitSpanTask_PR2,2022.1.3,58.96512908601819,
,,,,,,4,2047.0,0.55,7402.0,,,,,,,,,,,,,,,,,,,,,,,,,1,0,1,0,,,,,,,,,,,,,0,3,3,3,3,0,3,0,,,,,,,,,,,,,,,,,,,,,,,,,,,,,,,,,,,,,,,,,,,,,,,,,,,,,,,,,,,,,,,585.1106136742455,585.1106136742455,,,,,,,,,,,,,,,,,,,,frrf,01,FR,RF,2022-07-05_17h52.15.283,DigitSpanTask_PR2,2022.1.3,58.96512908601819,
,,,,,,4,2047.0,0.55,7402.0,,,,,,,,,,,,,,,,,,,,,,,,,1,0,1,0,,,,,,,,,,,,,0,3,3,3,,,,,,,,,,,,,,,1,,,,,,,,,,,,,,,,,,,,,,,,,,,,,,,,,,,,,,,,,,,,,,,,,,,,,,586.1107462784603,None,7402,586.1107462784603,None,590.1111896609764,None,,,,,,,,,,,,,frrf,01,FR,RF,2022-07-05_17h52.15.283,DigitSpanTask_PR2,2022.1.3,58.96512908601819,
,,,,,,5,15396.0,0.55,69351.0,,,,,,,,,,,,,,,,,,,,,,,,,1,0,1,0,,,,,,,,,,,,,0,4,4,4,0,0,0,0,,,,,,,,,,,,,,,,,,,,,,,,,,,,,,,,,,,,,,,,,,591.5857719371706,None,space,1.604258973751712,591.5857719371706,None,,,,,,,,,,,,,,593.2129303478905,None,593.7725735070726,None,,,,,,,,,,,,,,,,,,,,frrf,01,FR,RF,2022-07-05_17h52.15.283,DigitSpanTask_PR2,2022.1.3,58.96512908601819,
,,,,,,5,15396.0,0.55,69351.0,,,,,,,,,,,,,,,,,,,,,,,,,1,0,1,0,,,,,,,,,,,,,0,4,4,4,1,0,1,0,,,,,,,,,,,,,,,,,,,,,,,,,,,,,,,,,,,,,,,,,,,,,,,,,,,,,,,,,,,,,,,594.7729282130858,None,,,,,,,,,,,,,,,,,,,,frrf,01,FR,RF,2022-07-05_17h52.15.283,DigitSpanTask_PR2,2022.1.3,58.96512908601819,
,,,,,,5,15396.0,0.55,69351.0,,,,,,,,,,,,,,,,,,,,,,,,,1,0,1,0,,,,,,,,,,,,,0,4,4,4,2,0,2,0,,,,,,,,,,,,,,,,,,,,,,,,,,,,,,,,,,,,,,,,,,,,,,,,,,,,,,,,,,,,,,,595.772729512033,595.772729512033,,,,,,,,,,,,,,,,,,,,frrf,01,FR,RF,2022-07-05_17h52.15.283,DigitSpanTask_PR2,2022.1.3,58.96512908601819,
,,,,,,5,15396.0,0.55,69351.0,,,,,,,,,,,,,,,,,,,,,,,,,1,0,1,0,,,,,,,,,,,,,0,4,4,4,3,0,3,0,,,,,,,,,,,,,,,,,,,,,,,,,,,,,,,,,,,,,,,,,,,,,,,,,,,,,,,,,,,,,,,596.7741273985757,None,,,,,,,,,,,,,,,,,,,,frrf,01,FR,RF,2022-07-05_17h52.15.283,DigitSpanTask_PR2,2022.1.3,58.96512908601819,
,,,,,,5,15396.0,0.55,69351.0,,,,,,,,,,,,,,,,,,,,,,,,,1,0,1,0,,,,,,,,,,,,,0,4,4,4,4,0,4,0,,,,,,,,,,,,,,,,,,,,,,,,,,,,,,,,,,,,,,,,,,,,,,,,,,,,,,,,,,,,,,,597.7739504561087,None,,,,,,,,,,,,,,,,,,,,frrf,01,FR,RF,2022-07-05_17h52.15.283,DigitSpanTask_PR2,2022.1.3,58.96512908601819,
,,,,,,5,15396.0,0.55,69351.0,,,,,,,,,,,,,,,,,,,,,,,,,1,0,1,0,,,,,,,,,,,,,0,4,4,4,,,,,,,,,,,,,,,1,,,,,,,,,,,,,,,,,,,,,,,,,,,,,,,,,,,,,,,,,,,,,,,,,,,,,,598.7739964365173,None,69351,598.7739964365173,None,604.079487400546,None,,,,,,,,,,,,,frrf,01,FR,RF,2022-07-05_17h52.15.283,DigitSpanTask_PR2,2022.1.3,58.96512908601819,
,,,,,,5,90761.0,0.55,16709.0,,,,,,,,,,,,,,,,,,,,,,,,,1,0,1,0,,,,,,,,,,,,,0,5,5,5,0,0,0,0,,,,,,,,,,,,,,,,,,,,,,,,,,,,,,,,,,,,,,,,,,605.554189964776,None,space,20.155178581931978,605.554189964776,None,,,,,,,,,,,,,,625.7275053164849,None,626.287047893522,None,,,,,,,,,,,,,,,,,,,,frrf,01,FR,RF,2022-07-05_17h52.15.283,DigitSpanTask_PR2,2022.1.3,58.96512908601819,
,,,,,,5,90761.0,0.55,16709.0,,,,,,,,,,,,,,,,,,,,,,,,,1,0,1,0,,,,,,,,,,,,,0,5,5,5,1,0,1,0,,,,,,,,,,,,,,,,,,,,,,,,,,,,,,,,,,,,,,,,,,,,,,,,,,,,,,,,,,,,,,,627.2872207305954,627.2872207305954,,,,,,,,,,,,,,,,,,,,frrf,01,FR,RF,2022-07-05_17h52.15.283,DigitSpanTask_PR2,2022.1.3,58.96512908601819,
,,,,,,5,90761.0,0.55,16709.0,,,,,,,,,,,,,,,,,,,,,,,,,1,0,1,0,,,,,,,,,,,,,0,5,5,5,2,0,2,0,,,,,,,,,,,,,,,,,,,,,,,,,,,,,,,,,,,,,,,,,,,,,,,,,,,,,,,,,,,,,,,628.287384125264,628.287384125264,,,,,,,,,,,,,,,,,,,,frrf,01,FR,RF,2022-07-05_17h52.15.283,DigitSpanTask_PR2,2022.1.3,58.96512908601819,
,,,,,,5,90761.0,0.55,16709.0,,,,,,,,,,,,,,,,,,,,,,,,,1,0,1,0,,,,,,,,,,,,,0,5,5,5,3,0,3,0,,,,,,,,,,,,,,,,,,,,,,,,,,,,,,,,,,,,,,,,,,,,,,,,,,,,,,,,,,,,,,,629.2884769810571,None,,,,,,,,,,,,,,,,,,,,frrf,01,FR,RF,2022-07-05_17h52.15.283,DigitSpanTask_PR2,2022.1.3,58.96512908601819,
,,,,,,5,90761.0,0.55,16709.0,,,,,,,,,,,,,,,,,,,,,,,,,1,0,1,0,,,,,,,,,,,,,0,5,5,5,4,0,4,0,,,,,,,,,,,,,,,,,,,,,,,,,,,,,,,,,,,,,,,,,,,,,,,,,,,,,,,,,,,,,,,630.2888542667351,None,,,,,,,,,,,,,,,,,,,,frrf,01,FR,RF,2022-07-05_17h52.15.283,DigitSpanTask_PR2,2022.1.3,58.96512908601819,
,,,,,,5,90761.0,0.55,16709.0,,,,,,,,,,,,,,,,,,,,,,,,,1,0,1,0,,,,,,,,,,,,,0,5,5,5,,,,,,,,,,,,,,,1,,,,,,,,,,,,,,,,,,,,,,,,,,,,,,,,,,,,,,,,,,,,,,,,,,,,,,631.2921394027471,None,16709,631.2921394027471,None,638.7499696200866,None,,,,,,,,,,,,,frrf,01,FR,RF,2022-07-05_17h52.15.283,DigitSpanTask_PR2,2022.1.3,58.96512908601819,
,,,,,,6,835042.0,0.55,240538.0,,,,,,,,,,,,,,,,,,,,,,,,,1,0,1,0,,,,,,,,,,,,,0,6,6,6,0,0,0,0,,,,,,,,,,,,,,,,,,,,,,,,,,,,,,,,,,,,,,,,,,640.2247817983261,None,space,7.264251501934268,640.2247817983261,None,,,,,,,,,,,,,,647.5136368861404,None,648.0731150084976,None,,,,,,,,,,,,,,,,,,,,frrf,01,FR,RF,2022-07-05_17h52.15.283,DigitSpanTask_PR2,2022.1.3,58.96512908601819,
,,,,,,6,835042.0,0.55,240538.0,,,,,,,,,,,,,,,,,,,,,,,,,1,0,1,0,,,,,,,,,,,,,0,6,6,6,1,0,1,0,,,,,,,,,,,,,,,,,,,,,,,,,,,,,,,,,,,,,,,,,,,,,,,,,,,,,,,,,,,,,,,649.0732677291417,649.0732677291417,,,,,,,,,,,,,,,,,,,,frrf,01,FR,RF,2022-07-05_17h52.15.283,DigitSpanTask_PR2,2022.1.3,58.96512908601819,
,,,,,,6,835042.0,0.55,240538.0,,,,,,,,,,,,,,,,,,,,,,,,,1,0,1,0,,,,,,,,,,,,,0,6,6,6,2,0,2,0,,,,,,,,,,,,,,,,,,,,,,,,,,,,,,,,,,,,,,,,,,,,,,,,,,,,,,,,,,,,,,,650.0733112463149,650.0733112463149,,,,,,,,,,,,,,,,,,,,frrf,01,FR,RF,2022-07-05_17h52.15.283,DigitSpanTask_PR2,2022.1.3,58.96512908601819,
,,,,,,6,835042.0,0.55,240538.0,,,,,,,,,,,,,,,,,,,,,,,,,1,0,1,0,,,,,,,,,,,,,0,6,6,6,3,0,3,0,,,,,,,,,,,,,,,,,,,,,,,,,,,,,,,,,,,,,,,,,,,,,,,,,,,,,,,,,,,,,,,651.0734151127745,651.0734151127745,,,,,,,,,,,,,,,,,,,,frrf,01,FR,RF,2022-07-05_17h52.15.283,DigitSpanTask_PR2,2022.1.3,58.96512908601819,
,,,,,,6,835042.0,0.55,240538.0,,,,,,,,,,,,,,,,,,,,,,,,,1,0,1,0,,,,,,,,,,,,,0,6,6,6,4,0,4,0,,,,,,,,,,,,,,,,,,,,,,,,,,,,,,,,,,,,,,,,,,,,,,,,,,,,,,,,,,,,,,,652.0734528823959,652.0734528823959,,,,,,,,,,,,,,,,,,,,frrf,01,FR,RF,2022-07-05_17h52.15.283,DigitSpanTask_PR2,2022.1.3,58.96512908601819,
,,,,,,6,835042.0,0.55,240538.0,,,,,,,,,,,,,,,,,,,,,,,,,1,0,1,0,,,,,,,,,,,,,0,6,6,6,5,0,5,0,,,,,,,,,,,,,,,,,,,,,,,,,,,,,,,,,,,,,,,,,,,,,,,,,,,,,,,,,,,,,,,653.0734701250494,653.0734701250494,,,,,,,,,,,,,,,,,,,,frrf,01,FR,RF,2022-07-05_17h52.15.283,DigitSpanTask_PR2,2022.1.3,58.96512908601819,
,,,,,,6,835042.0,0.55,240538.0,,,,,,,,,,,,,,,,,,,,,,,,,1,0,1,0,,,,,,,,,,,,,0,6,6,6,,,,,,,,,,,,,,,0,,,,,,,,,,,,,,,,,,,,,,,,,,,,,,,,,,,,,,,,,,,,,,,,,,,,,,654.073599034411,None,243508,654.073599034411,None,662.616756985326,None,,,,,,,,,,,,,frrf,01,FR,RF,2022-07-05_17h52.15.283,DigitSpanTask_PR2,2022.1.3,58.96512908601819,
,,,,,,6,615739.0,0.55,937516.0,,,,,,,,,,,,,,,,,,,,,,,,,1,0,1,0,,,,,,,,,,,,,0,7,7,7,0,0,0,0,,,,,,,,,,,,,,,,,,,,,,,,,,,,,,,,,,,,,,,,,,664.0924768661062,None,space,3.195251740045933,664.0924768661062,None,,,,,,,,,,,,,,667.3128658932092,None,667.8723345731614,None,,,,,,,,,,,,,,,,,,,,frrf,01,FR,RF,2022-07-05_17h52.15.283,DigitSpanTask_PR2,2022.1.3,58.96512908601819,
,,,,,,6,615739.0,0.55,937516.0,,,,,,,,,,,,,,,,,,,,,,,,,1,0,1,0,,,,,,,,,,,,,0,7,7,7,1,0,1,0,,,,,,,,,,,,,,,,,,,,,,,,,,,,,,,,,,,,,,,,,,,,,,,,,,,,,,,,,,,,,,,668.8725377901483,668.8725377901483,,,,,,,,,,,,,,,,,,,,frrf,01,FR,RF,2022-07-05_17h52.15.283,DigitSpanTask_PR2,2022.1.3,58.96512908601819,
,,,,,,6,615739.0,0.55,937516.0,,,,,,,,,,,,,,,,,,,,,,,,,1,0,1,0,,,,,,,,,,,,,0,7,7,7,2,0,2,0,,,,,,,,,,,,,,,,,,,,,,,,,,,,,,,,,,,,,,,,,,,,,,,,,,,,,,,,,,,,,,,669.8728173674572,669.8728173674572,,,,,,,,,,,,,,,,,,,,frrf,01,FR,RF,2022-07-05_17h52.15.283,DigitSpanTask_PR2,2022.1.3,58.96512908601819,
,,,,,,6,615739.0,0.55,937516.0,,,,,,,,,,,,,,,,,,,,,,,,,1,0,1,0,,,,,,,,,,,,,0,7,7,7,3,0,3,0,,,,,,,,,,,,,,,,,,,,,,,,,,,,,,,,,,,,,,,,,,,,,,,,,,,,,,,,,,,,,,,670.8729080966568,670.8729080966568,,,,,,,,,,,,,,,,,,,,frrf,01,FR,RF,2022-07-05_17h52.15.283,DigitSpanTask_PR2,2022.1.3,58.96512908601819,
,,,,,,6,615739.0,0.55,937516.0,,,,,,,,,,,,,,,,,,,,,,,,,1,0,1,0,,,,,,,,,,,,,0,7,7,7,4,0,4,0,,,,,,,,,,,,,,,,,,,,,,,,,,,,,,,,,,,,,,,,,,,,,,,,,,,,,,,,,,,,,,,671.8731638626814,None,,,,,,,,,,,,,,,,,,,,frrf,01,FR,RF,2022-07-05_17h52.15.283,DigitSpanTask_PR2,2022.1.3,58.96512908601819,
,,,,,,6,615739.0,0.55,937516.0,,,,,,,,,,,,,,,,,,,,,,,,,1,0,1,0,,,,,,,,,,,,,0,7,7,7,5,0,5,0,,,,,,,,,,,,,,,,,,,,,,,,,,,,,,,,,,,,,,,,,,,,,,,,,,,,,,,,,,,,,,,672.8733703639846,None,,,,,,,,,,,,,,,,,,,,frrf,01,FR,RF,2022-07-05_17h52.15.283,DigitSpanTask_PR2,2022.1.3,58.96512908601819,
,,,,,,6,615739.0,0.55,937516.0,,,,,,,,,,,,,,,,,,,,,,,,,1,0,1,0,,,,,,,,,,,,,0,7,7,7,,,,,,,,,,,,,,,0,,,,,,,,,,,,,,,,,,,,,,,,,,,,,,,,,,,,,,,,,,,,,,,,,,,,,,673.8738724536288,None,93,673.8738724536288,None,678.7886342176353,None,,,,,,,,,,,,,frrf,01,FR,RF,2022-07-05_17h52.15.283,DigitSpanTask_PR2,2022.1.3,58.96512908601819,
,,,,,,,,,,,,,,,,,,,,,,,,,,,,,,,,,,1,0,1,0,,,,,,,,,,,,,,,,,,,,,,,,,,,,,,,,,,,,,,,,,,,,,,,,,,,,,,,,,,,,,,,,,,,,,,,,,,,,,,,,,,,,,,,,,,,,679.8053772446237,None,3.046875,5.780282204759715,679.8053772446237,None,space,1.6389072646743443,685.8244398190345,None,,,frrf,01,FR,RF,2022-07-05_17h52.15.283,DigitSpanTask_PR2,2022.1.3,58.96512908601819,
,,,,,,,,,,,,,,,,,,,,,,,,,,,,,,,,,,,,,,,,,,,,,,,,,,,,,,,,,,,,,,,,,,,,,,,,,,,,,,,,,,,,,,,,,,,,,,,,,,,,,,,,,,,,,,,,,,,,,,,,,,,,,,,,,,,,,,,,,,,687.4859189102644,None,,,,,,,,,
