start_mouse.x,start_mouse.y,start_mouse.leftButton,start_mouse.midButton,start_mouse.rightButton,start_mouse.clicked_name,digitLoop.thisRepN,digitLoop.thisTrialN,digitLoop.thisN,digitLoop.thisIndex,digitLoop.ran,participant,session,date,expName,psychopyVersion,OS,frameRate,textbox.text,correct,mouse.x,mouse.y,mouse.leftButton,mouse.midButton,mouse.rightButton,mouse.clicked_name,trials.thisRepN,trials.thisTrialN,trials.thisN,trials.thisIndex,trials.ran,digitSpan,digits,blocks.thisRepN,blocks.thisTrialN,blocks.thisN,blocks.thisIndex,blocks.ran,condition_file
-0.014744679,-0.417593559,1,0,0,cont_button,0,0,0,0,1,0,001,2022-04-19_11h41.08.688,Digit Span Task,2021.2.3,Linux x86_64,59.9880024,,,,,,,,,,,,,,,,,,,,,
,,,,,,1,0,1,0,1,0,001,2022-04-19_11h41.08.688,Digit Span Task,2021.2.3,Linux x86_64,59.9880024,,,,,,,,,,,,,,,,,,,,,
,,,,,,2,0,2,0,1,0,001,2022-04-19_11h41.08.688,Digit Span Task,2021.2.3,Linux x86_64,59.9880024,,,,,,,,,,,,,,,,,,,,,
,,,,,,,,,,,0,001,2022-04-19_11h41.08.688,Digit Span Task,2021.2.3,Linux x86_64,59.9880024,217,1,0.001628558,-0.384036859,1,0,0,cont_button,0,0,0,0,1,3,217,,,,,,
,,,,,,0,0,0,0,1,0,001,2022-04-19_11h41.08.688,Digit Span Task,2021.2.3,Linux x86_64,59.9880024,,,,,,,,,,,,,,,,,,,,,
,,,,,,1,0,1,0,1,0,001,2022-04-19_11h41.08.688,Digit Span Task,2021.2.3,Linux x86_64,59.9880024,,,,,,,,,,,,,,,,,,,,,
,,,,,,2,0,2,0,1,0,001,2022-04-19_11h41.08.688,Digit Span Task,2021.2.3,Linux x86_64,59.9880024,,,,,,,,,,,,,,,,,,,,,
,,,,,,,,,,,0,001,2022-04-19_11h41.08.688,Digit Span Task,2021.2.3,Linux x86_64,59.9880024,486,1,-0.017631849,-0.423769077,1,0,0,cont_button,0,1,1,1,1,3,486,,,,,,
,,,,,,0,0,0,0,1,0,001,2022-04-19_11h41.08.688,Digit Span Task,2021.2.3,Linux x86_64,59.9880024,,,,,,,,,,,,,,,,,,,,,
,,,,,,1,0,1,0,1,0,001,2022-04-19_11h41.08.688,Digit Span Task,2021.2.3,Linux x86_64,59.9880024,,,,,,,,,,,,,,,,,,,,,
,,,,,,2,0,2,0,1,0,001,2022-04-19_11h41.08.688,Digit Span Task,2021.2.3,Linux x86_64,59.9880024,,,,,,,,,,,,,,,,,,,,,
,,,,,,,,,,,0,001,2022-04-19_11h41.08.688,Digit Span Task,2021.2.3,Linux x86_64,59.9880024,760,1,-0.04393061,-0.377666314,1,0,0,cont_button,0,2,2,2,1,3,760,,,,,,
,,,,,,,,,,,0,001,2022-04-19_11h41.08.688,Digit Span Task,2021.2.3,Linux x86_64,59.9880024,,,,,,,,,,,,,,,,0,0,0,0,1,three.xlsx
,,,,,,0,0,0,0,1,0,001,2022-04-19_11h41.08.688,Digit Span Task,2021.2.3,Linux x86_64,59.9880024,,,,,,,,,,,,,,,,,,,,,
,,,,,,1,0,1,0,1,0,001,2022-04-19_11h41.08.688,Digit Span Task,2021.2.3,Linux x86_64,59.9880024,,,,,,,,,,,,,,,,,,,,,
,,,,,,2,0,2,0,1,0,001,2022-04-19_11h41.08.688,Digit Span Task,2021.2.3,Linux x86_64,59.9880024,,,,,,,,,,,,,,,,,,,,,
,,,,,,3,0,3,0,1,0,001,2022-04-19_11h41.08.688,Digit Span Task,2021.2.3,Linux x86_64,59.9880024,,,,,,,,,,,,,,,,,,,,,
,,,,,,,,,,,0,001,2022-04-19_11h41.08.688,Digit Span Task,2021.2.3,Linux x86_64,59.9880024,3141,1,0.021025181,-0.371584018,1,0,0,cont_button,0,0,0,0,1,4,3141,,,,,,
,,,,,,0,0,0,0,1,0,001,2022-04-19_11h41.08.688,Digit Span Task,2021.2.3,Linux x86_64,59.9880024,,,,,,,,,,,,,,,,,,,,,
,,,,,,1,0,1,0,1,0,001,2022-04-19_11h41.08.688,Digit Span Task,2021.2.3,Linux x86_64,59.9880024,,,,,,,,,,,,,,,,,,,,,
,,,,,,2,0,2,0,1,0,001,2022-04-19_11h41.08.688,Digit Span Task,2021.2.3,Linux x86_64,59.9880024,,,,,,,,,,,,,,,,,,,,,
,,,,,,3,0,3,0,1,0,001,2022-04-19_11h41.08.688,Digit Span Task,2021.2.3,Linux x86_64,59.9880024,,,,,,,,,,,,,,,,,,,,,
,,,,,,,,,,,0,001,2022-04-19_11h41.08.688,Digit Span Task,2021.2.3,Linux x86_64,59.9880024,6351,1,-0.018736045,-0.393652757,1,0,0,cont_button,0,1,1,1,1,4,6351,,,,,,
,,,,,,0,0,0,0,1,0,001,2022-04-19_11h41.08.688,Digit Span Task,2021.2.3,Linux x86_64,59.9880024,,,,,,,,,,,,,,,,,,,,,
,,,,,,1,0,1,0,1,0,001,2022-04-19_11h41.08.688,Digit Span Task,2021.2.3,Linux x86_64,59.9880024,,,,,,,,,,,,,,,,,,,,,
,,,,,,2,0,2,0,1,0,001,2022-04-19_11h41.08.688,Digit Span Task,2021.2.3,Linux x86_64,59.9880024,,,,,,,,,,,,,,,,,,,,,
,,,,,,3,0,3,0,1,0,001,2022-04-19_11h41.08.688,Digit Span Task,2021.2.3,Linux x86_64,59.9880024,,,,,,,,,,,,,,,,,,,,,
,,,,,,,,,,,0,001,2022-04-19_11h41.08.688,Digit Span Task,2021.2.3,Linux x86_64,59.9880024,2391,1,-0.055223783,-0.410098791,1,0,0,cont_button,0,2,2,2,1,4,2391,,,,,,
,,,,,,,,,,,0,001,2022-04-19_11h41.08.688,Digit Span Task,2021.2.3,Linux x86_64,59.9880024,,,,,,,,,,,,,,,,0,1,1,1,1,four.xlsx
,,,,,,0,0,0,0,1,0,001,2022-04-19_11h41.08.688,Digit Span Task,2021.2.3,Linux x86_64,59.9880024,,,,,,,,,,,,,,,,,,,,,
,,,,,,1,0,1,0,1,0,001,2022-04-19_11h41.08.688,Digit Span Task,2021.2.3,Linux x86_64,59.9880024,,,,,,,,,,,,,,,,,,,,,
,,,,,,2,0,2,0,1,0,001,2022-04-19_11h41.08.688,Digit Span Task,2021.2.3,Linux x86_64,59.9880024,,,,,,,,,,,,,,,,,,,,,
,,,,,,3,0,3,0,1,0,001,2022-04-19_11h41.08.688,Digit Span Task,2021.2.3,Linux x86_64,59.9880024,,,,,,,,,,,,,,,,,,,,,
,,,,,,4,0,4,0,1,0,001,2022-04-19_11h41.08.688,Digit Span Task,2021.2.3,Linux x86_64,59.9880024,,,,,,,,,,,,,,,,,,,,,
,,,,,,,,,,,0,001,2022-04-19_11h41.08.688,Digit Span Task,2021.2.3,Linux x86_64,59.9880024,14392,0,-0.006022771,-0.380253474,1,0,0,cont_button,0,0,0,0,1,5,14932,,,,,,
,,,,,,0,0,0,0,1,0,001,2022-04-19_11h41.08.688,Digit Span Task,2021.2.3,Linux x86_64,59.9880024,,,,,,,,,,,,,,,,,,,,,
,,,,,,1,0,1,0,1,0,001,2022-04-19_11h41.08.688,Digit Span Task,2021.2.3,Linux x86_64,59.9880024,,,,,,,,,,,,,,,,,,,,,
,,,,,,2,0,2,0,1,0,001,2022-04-19_11h41.08.688,Digit Span Task,2021.2.3,Linux x86_64,59.9880024,,,,,,,,,,,,,,,,,,,,,
,,,,,,3,0,3,0,1,0,001,2022-04-19_11h41.08.688,Digit Span Task,2021.2.3,Linux x86_64,59.9880024,,,,,,,,,,,,,,,,,,,,,
,,,,,,4,0,4,0,1,0,001,2022-04-19_11h41.08.688,Digit Span Task,2021.2.3,Linux x86_64,59.9880024,,,,,,,,,,,,,,,,,,,,,
,,,,,,,,,,,0,001,2022-04-19_11h41.08.688,Digit Span Task,2021.2.3,Linux x86_64,59.9880024,10646,1,-0.040916443,-0.402851582,1,0,0,cont_button,0,1,1,1,1,5,10646,,,,,,
,,,,,,0,0,0,0,1,0,001,2022-04-19_11h41.08.688,Digit Span Task,2021.2.3,Linux x86_64,59.9880024,,,,,,,,,,,,,,,,,,,,,
,,,,,,1,0,1,0,1,0,001,2022-04-19_11h41.08.688,Digit Span Task,2021.2.3,Linux x86_64,59.9880024,,,,,,,,,,,,,,,,,,,,,
,,,,,,2,0,2,0,1,0,001,2022-04-19_11h41.08.688,Digit Span Task,2021.2.3,Linux x86_64,59.9880024,,,,,,,,,,,,,,,,,,,,,
,,,,,,3,0,3,0,1,0,001,2022-04-19_11h41.08.688,Digit Span Task,2021.2.3,Linux x86_64,59.9880024,,,,,,,,,,,,,,,,,,,,,
,,,,,,4,0,4,0,1,0,001,2022-04-19_11h41.08.688,Digit Span Task,2021.2.3,Linux x86_64,59.9880024,,,,,,,,,,,,,,,,,,,,,
,,,,,,,,,,,0,001,2022-04-19_11h41.08.688,Digit Span Task,2021.2.3,Linux x86_64,59.9880024,74832,1,-0.040412267,-0.418206851,1,0,0,cont_button,0,2,2,2,1,5,74832,,,,,,
,,,,,,,,,,,0,001,2022-04-19_11h41.08.688,Digit Span Task,2021.2.3,Linux x86_64,59.9880024,,,,,,,,,,,,,,,,0,2,2,2,1,five.xlsx
,,,,,,0,0,0,0,1,0,001,2022-04-19_11h41.08.688,Digit Span Task,2021.2.3,Linux x86_64,59.9880024,,,,,,,,,,,,,,,,,,,,,
,,,,,,1,0,1,0,1,0,001,2022-04-19_11h41.08.688,Digit Span Task,2021.2.3,Linux x86_64,59.9880024,,,,,,,,,,,,,,,,,,,,,
,,,,,,2,0,2,0,1,0,001,2022-04-19_11h41.08.688,Digit Span Task,2021.2.3,Linux x86_64,59.9880024,,,,,,,,,,,,,,,,,,,,,
,,,,,,3,0,3,0,1,0,001,2022-04-19_11h41.08.688,Digit Span Task,2021.2.3,Linux x86_64,59.9880024,,,,,,,,,,,,,,,,,,,,,
,,,,,,4,0,4,0,1,0,001,2022-04-19_11h41.08.688,Digit Span Task,2021.2.3,Linux x86_64,59.9880024,,,,,,,,,,,,,,,,,,,,,
,,,,,,5,0,5,0,1,0,001,2022-04-19_11h41.08.688,Digit Span Task,2021.2.3,Linux x86_64,59.9880024,,,,,,,,,,,,,,,,,,,,,
,,,,,,,,,,,0,001,2022-04-19_11h41.08.688,Digit Span Task,2021.2.3,Linux x86_64,59.9880024,934648,1,-0.075231791,-0.410433769,1,0,0,cont_button,0,0,0,0,1,6,934648,,,,,,
,,,,,,0,0,0,0,1,0,001,2022-04-19_11h41.08.688,Digit Span Task,2021.2.3,Linux x86_64,59.9880024,,,,,,,,,,,,,,,,,,,,,
,,,,,,1,0,1,0,1,0,001,2022-04-19_11h41.08.688,Digit Span Task,2021.2.3,Linux x86_64,59.9880024,,,,,,,,,,,,,,,,,,,,,
,,,,,,2,0,2,0,1,0,001,2022-04-19_11h41.08.688,Digit Span Task,2021.2.3,Linux x86_64,59.9880024,,,,,,,,,,,,,,,,,,,,,
,,,,,,3,0,3,0,1,0,001,2022-04-19_11h41.08.688,Digit Span Task,2021.2.3,Linux x86_64,59.9880024,,,,,,,,,,,,,,,,,,,,,
,,,,,,4,0,4,0,1,0,001,2022-04-19_11h41.08.688,Digit Span Task,2021.2.3,Linux x86_64,59.9880024,,,,,,,,,,,,,,,,,,,,,
,,,,,,5,0,5,0,1,0,001,2022-04-19_11h41.08.688,Digit Span Task,2021.2.3,Linux x86_64,59.9880024,,,,,,,,,,,,,,,,,,,,,
,,,,,,,,,,,0,001,2022-04-19_11h41.08.688,Digit Span Task,2021.2.3,Linux x86_64,59.9880024,179390,1,-0.04513677,-0.403570175,1,0,0,cont_button,0,1,1,1,1,6,179390,,,,,,
,,,,,,0,0,0,0,1,0,001,2022-04-19_11h41.08.688,Digit Span Task,2021.2.3,Linux x86_64,59.9880024,,,,,,,,,,,,,,,,,,,,,
,,,,,,1,0,1,0,1,0,001,2022-04-19_11h41.08.688,Digit Span Task,2021.2.3,Linux x86_64,59.9880024,,,,,,,,,,,,,,,,,,,,,
,,,,,,2,0,2,0,1,0,001,2022-04-19_11h41.08.688,Digit Span Task,2021.2.3,Linux x86_64,59.9880024,,,,,,,,,,,,,,,,,,,,,
,,,,,,3,0,3,0,1,0,001,2022-04-19_11h41.08.688,Digit Span Task,2021.2.3,Linux x86_64,59.9880024,,,,,,,,,,,,,,,,,,,,,
,,,,,,4,0,4,0,1,0,001,2022-04-19_11h41.08.688,Digit Span Task,2021.2.3,Linux x86_64,59.9880024,,,,,,,,,,,,,,,,,,,,,
,,,,,,5,0,5,0,1,0,001,2022-04-19_11h41.08.688,Digit Span Task,2021.2.3,Linux x86_64,59.9880024,,,,,,,,,,,,,,,,,,,,,
,,,,,,,,,,,0,001,2022-04-19_11h41.08.688,Digit Span Task,2021.2.3,Linux x86_64,59.9880024,408288,1,-0.062403679,-0.408682346,1,0,0,cont_button,0,2,2,2,1,6,408288,,,,,,
,,,,,,,,,,,0,001,2022-04-19_11h41.08.688,Digit Span Task,2021.2.3,Linux x86_64,59.9880024,,,,,,,,,,,,,,,,0,3,3,3,1,six.xlsx
,,,,,,0,0,0,0,1,0,001,2022-04-19_11h41.08.688,Digit Span Task,2021.2.3,Linux x86_64,59.9880024,,,,,,,,,,,,,,,,,,,,,
,,,,,,1,0,1,0,1,0,001,2022-04-19_11h41.08.688,Digit Span Task,2021.2.3,Linux x86_64,59.9880024,,,,,,,,,,,,,,,,,,,,,
,,,,,,2,0,2,0,1,0,001,2022-04-19_11h41.08.688,Digit Span Task,2021.2.3,Linux x86_64,59.9880024,,,,,,,,,,,,,,,,,,,,,
,,,,,,3,0,3,0,1,0,001,2022-04-19_11h41.08.688,Digit Span Task,2021.2.3,Linux x86_64,59.9880024,,,,,,,,,,,,,,,,,,,,,
,,,,,,4,0,4,0,1,0,001,2022-04-19_11h41.08.688,Digit Span Task,2021.2.3,Linux x86_64,59.9880024,,,,,,,,,,,,,,,,,,,,,
,,,,,,5,0,5,0,1,0,001,2022-04-19_11h41.08.688,Digit Span Task,2021.2.3,Linux x86_64,59.9880024,,,,,,,,,,,,,,,,,,,,,
,,,,,,6,0,6,0,1,0,001,2022-04-19_11h41.08.688,Digit Span Task,2021.2.3,Linux x86_64,59.9880024,,,,,,,,,,,,,,,,,,,,,
,,,,,,,,,,,0,001,2022-04-19_11h41.08.688,Digit Span Task,2021.2.3,Linux x86_64,59.9880024,4498237,1,-0.04832077,-0.399567048,1,0,0,cont_button,0,0,0,0,1,7,4498237,,,,,,
,,,,,,0,0,0,0,1,0,001,2022-04-19_11h41.08.688,Digit Span Task,2021.2.3,Linux x86_64,59.9880024,,,,,,,,,,,,,,,,,,,,,
,,,,,,1,0,1,0,1,0,001,2022-04-19_11h41.08.688,Digit Span Task,2021.2.3,Linux x86_64,59.9880024,,,,,,,,,,,,,,,,,,,,,
,,,,,,2,0,2,0,1,0,001,2022-04-19_11h41.08.688,Digit Span Task,2021.2.3,Linux x86_64,59.9880024,,,,,,,,,,,,,,,,,,,,,
,,,,,,3,0,3,0,1,0,001,2022-04-19_11h41.08.688,Digit Span Task,2021.2.3,Linux x86_64,59.9880024,,,,,,,,,,,,,,,,,,,,,
,,,,,,4,0,4,0,1,0,001,2022-04-19_11h41.08.688,Digit Span Task,2021.2.3,Linux x86_64,59.9880024,,,,,,,,,,,,,,,,,,,,,
,,,,,,5,0,5,0,1,0,001,2022-04-19_11h41.08.688,Digit Span Task,2021.2.3,Linux x86_64,59.9880024,,,,,,,,,,,,,,,,,,,,,
,,,,,,6,0,6,0,1,0,001,2022-04-19_11h41.08.688,Digit Span Task,2021.2.3,Linux x86_64,59.9880024,,,,,,,,,,,,,,,,,,,,,
,,,,,,,,,,,0,001,2022-04-19_11h41.08.688,Digit Span Task,2021.2.3,Linux x86_64,59.9880024,2544371,1,-0.069887877,-0.405398846,1,0,0,cont_button,0,1,1,1,1,7,2544371,,,,,,
,,,,,,0,0,0,0,1,0,001,2022-04-19_11h41.08.688,Digit Span Task,2021.2.3,Linux x86_64,59.9880024,,,,,,,,,,,,,,,,,,,,,
,,,,,,1,0,1,0,1,0,001,2022-04-19_11h41.08.688,Digit Span Task,2021.2.3,Linux x86_64,59.9880024,,,,,,,,,,,,,,,,,,,,,
,,,,,,2,0,2,0,1,0,001,2022-04-19_11h41.08.688,Digit Span Task,2021.2.3,Linux x86_64,59.9880024,,,,,,,,,,,,,,,,,,,,,
,,,,,,3,0,3,0,1,0,001,2022-04-19_11h41.08.688,Digit Span Task,2021.2.3,Linux x86_64,59.9880024,,,,,,,,,,,,,,,,,,,,,
,,,,,,4,0,4,0,1,0,001,2022-04-19_11h41.08.688,Digit Span Task,2021.2.3,Linux x86_64,59.9880024,,,,,,,,,,,,,,,,,,,,,
,,,,,,5,0,5,0,1,0,001,2022-04-19_11h41.08.688,Digit Span Task,2021.2.3,Linux x86_64,59.9880024,,,,,,,,,,,,,,,,,,,,,
,,,,,,6,0,6,0,1,0,001,2022-04-19_11h41.08.688,Digit Span Task,2021.2.3,Linux x86_64,59.9880024,,,,,,,,,,,,,,,,,,,,,
,,,,,,,,,,,0,001,2022-04-19_11h41.08.688,Digit Span Task,2021.2.3,Linux x86_64,59.9880024,8857085,0,-0.002206564,-0.397794485,1,0,0,cont_button,0,2,2,2,1,7,8875085,,,,,,
,,,,,,,,,,,0,001,2022-04-19_11h41.08.688,Digit Span Task,2021.2.3,Linux x86_64,59.9880024,,,,,,,,,,,,,,,,0,4,4,4,1,seven.xlsx
,,,,,,0,0,0,0,1,0,001,2022-04-19_11h41.08.688,Digit Span Task,2021.2.3,Linux x86_64,59.9880024,,,,,,,,,,,,,,,,,,,,,
,,,,,,1,0,1,0,1,0,001,2022-04-19_11h41.08.688,Digit Span Task,2021.2.3,Linux x86_64,59.9880024,,,,,,,,,,,,,,,,,,,,,
,,,,,,2,0,2,0,1,0,001,2022-04-19_11h41.08.688,Digit Span Task,2021.2.3,Linux x86_64,59.9880024,,,,,,,,,,,,,,,,,,,,,
,,,,,,3,0,3,0,1,0,001,2022-04-19_11h41.08.688,Digit Span Task,2021.2.3,Linux x86_64,59.9880024,,,,,,,,,,,,,,,,,,,,,
,,,,,,4,0,4,0,1,0,001,2022-04-19_11h41.08.688,Digit Span Task,2021.2.3,Linux x86_64,59.9880024,,,,,,,,,,,,,,,,,,,,,
,,,,,,5,0,5,0,1,0,001,2022-04-19_11h41.08.688,Digit Span Task,2021.2.3,Linux x86_64,59.9880024,,,,,,,,,,,,,,,,,,,,,
,,,,,,6,0,6,0,1,0,001,2022-04-19_11h41.08.688,Digit Span Task,2021.2.3,Linux x86_64,59.9880024,,,,,,,,,,,,,,,,,,,,,
,,,,,,7,0,7,0,1,0,001,2022-04-19_11h41.08.688,Digit Span Task,2021.2.3,Linux x86_64,59.9880024,,,,,,,,,,,,,,,,,,,,,
,,,,,,,,,,,0,001,2022-04-19_11h41.08.688,Digit Span Task,2021.2.3,Linux x86_64,59.9880024,42229082,0,-0.011042436,-0.416177352,1,0,0,cont_button,0,0,0,0,1,8,46229408,,,,,,
,,,,,,0,0,0,0,1,0,001,2022-04-19_11h41.08.688,Digit Span Task,2021.2.3,Linux x86_64,59.9880024,,,,,,,,,,,,,,,,,,,,,
,,,,,,1,0,1,0,1,0,001,2022-04-19_11h41.08.688,Digit Span Task,2021.2.3,Linux x86_64,59.9880024,,,,,,,,,,,,,,,,,,,,,
,,,,,,2,0,2,0,1,0,001,2022-04-19_11h41.08.688,Digit Span Task,2021.2.3,Linux x86_64,59.9880024,,,,,,,,,,,,,,,,,,,,,
,,,,,,3,0,3,0,1,0,001,2022-04-19_11h41.08.688,Digit Span Task,2021.2.3,Linux x86_64,59.9880024,,,,,,,,,,,,,,,,,,,,,
,,,,,,4,0,4,0,1,0,001,2022-04-19_11h41.08.688,Digit Span Task,2021.2.3,Linux x86_64,59.9880024,,,,,,,,,,,,,,,,,,,,,
,,,,,,5,0,5,0,1,0,001,2022-04-19_11h41.08.688,Digit Span Task,2021.2.3,Linux x86_64,59.9880024,,,,,,,,,,,,,,,,,,,,,
,,,,,,6,0,6,0,1,0,001,2022-04-19_11h41.08.688,Digit Span Task,2021.2.3,Linux x86_64,59.9880024,,,,,,,,,,,,,,,,,,,,,
,,,,,,7,0,7,0,1,0,001,2022-04-19_11h41.08.688,Digit Span Task,2021.2.3,Linux x86_64,59.9880024,,,,,,,,,,,,,,,,,,,,,
,,,,,,,,,,,0,001,2022-04-19_11h41.08.688,Digit Span Task,2021.2.3,Linux x86_64,59.9880024,70908620,0,-0.021152814,-0.389000257,1,0,0,cont_button,0,1,1,1,1,8,70967882,,,,,,
,,,,,,0,0,0,0,1,0,001,2022-04-19_11h41.08.688,Digit Span Task,2021.2.3,Linux x86_64,59.9880024,,,,,,,,,,,,,,,,,,,,,
,,,,,,1,0,1,0,1,0,001,2022-04-19_11h41.08.688,Digit Span Task,2021.2.3,Linux x86_64,59.9880024,,,,,,,,,,,,,,,,,,,,,
,,,,,,2,0,2,0,1,0,001,2022-04-19_11h41.08.688,Digit Span Task,2021.2.3,Linux x86_64,59.9880024,,,,,,,,,,,,,,,,,,,,,
,,,,,,3,0,3,0,1,0,001,2022-04-19_11h41.08.688,Digit Span Task,2021.2.3,Linux x86_64,59.9880024,,,,,,,,,,,,,,,,,,,,,
,,,,,,4,0,4,0,1,0,001,2022-04-19_11h41.08.688,Digit Span Task,2021.2.3,Linux x86_64,59.9880024,,,,,,,,,,,,,,,,,,,,,
,,,,,,5,0,5,0,1,0,001,2022-04-19_11h41.08.688,Digit Span Task,2021.2.3,Linux x86_64,59.9880024,,,,,,,,,,,,,,,,,,,,,
,,,,,,6,0,6,0,1,0,001,2022-04-19_11h41.08.688,Digit Span Task,2021.2.3,Linux x86_64,59.9880024,,,,,,,,,,,,,,,,,,,,,
,,,,,,7,0,7,0,1,0,001,2022-04-19_11h41.08.688,Digit Span Task,2021.2.3,Linux x86_64,59.9880024,,,,,,,,,,,,,,,,,,,,,
,,,,,,,,,,,0,001,2022-04-19_11h41.08.688,Digit Span Task,2021.2.3,Linux x86_64,59.9880024,"2719320
",0,-0.040185134,-0.408227046,1,0,0,cont_button,0,2,2,2,1,8,27139320,,,,,,
,,,,,,,,,,,0,001,2022-04-19_11h41.08.688,Digit Span Task,2021.2.3,Linux x86_64,59.9880024,,,,,,,,,,,,,,,,0,5,5,5,1,eight.xlsx
,,,,,,0,0,0,0,1,0,001,2022-04-19_11h41.08.688,Digit Span Task,2021.2.3,Linux x86_64,59.9880024,,,,,,,,,,,,,,,,,,,,,
,,,,,,1,0,1,0,1,0,001,2022-04-19_11h41.08.688,Digit Span Task,2021.2.3,Linux x86_64,59.9880024,,,,,,,,,,,,,,,,,,,,,
,,,,,,2,0,2,0,1,0,001,2022-04-19_11h41.08.688,Digit Span Task,2021.2.3,Linux x86_64,59.9880024,,,,,,,,,,,,,,,,,,,,,
,,,,,,3,0,3,0,1,0,001,2022-04-19_11h41.08.688,Digit Span Task,2021.2.3,Linux x86_64,59.9880024,,,,,,,,,,,,,,,,,,,,,
,,,,,,4,0,4,0,1,0,001,2022-04-19_11h41.08.688,Digit Span Task,2021.2.3,Linux x86_64,59.9880024,,,,,,,,,,,,,,,,,,,,,
,,,,,,5,0,5,0,1,0,001,2022-04-19_11h41.08.688,Digit Span Task,2021.2.3,Linux x86_64,59.9880024,,,,,,,,,,,,,,,,,,,,,
,,,,,,6,0,6,0,1,0,001,2022-04-19_11h41.08.688,Digit Span Task,2021.2.3,Linux x86_64,59.9880024,,,,,,,,,,,,,,,,,,,,,
,,,,,,7,0,7,0,1,0,001,2022-04-19_11h41.08.688,Digit Span Task,2021.2.3,Linux x86_64,59.9880024,,,,,,,,,,,,,,,,,,,,,
,,,,,,8,0,8,0,1,0,001,2022-04-19_11h41.08.688,Digit Span Task,2021.2.3,Linux x86_64,59.9880024,,,,,,,,,,,,,,,,,,,,,
,,,,,,,,,,,0,001,2022-04-19_11h41.08.688,Digit Span Task,2021.2.3,Linux x86_64,59.9880024,368373442,1,-0.045805454,-0.420128822,1,0,0,cont_button,0,0,0,0,1,9,368373442,,,,,,
,,,,,,0,0,0,0,1,0,001,2022-04-19_11h41.08.688,Digit Span Task,2021.2.3,Linux x86_64,59.9880024,,,,,,,,,,,,,,,,,,,,,
,,,,,,1,0,1,0,1,0,001,2022-04-19_11h41.08.688,Digit Span Task,2021.2.3,Linux x86_64,59.9880024,,,,,,,,,,,,,,,,,,,,,
,,,,,,2,0,2,0,1,0,001,2022-04-19_11h41.08.688,Digit Span Task,2021.2.3,Linux x86_64,59.9880024,,,,,,,,,,,,,,,,,,,,,
,,,,,,3,0,3,0,1,0,001,2022-04-19_11h41.08.688,Digit Span Task,2021.2.3,Linux x86_64,59.9880024,,,,,,,,,,,,,,,,,,,,,
,,,,,,4,0,4,0,1,0,001,2022-04-19_11h41.08.688,Digit Span Task,2021.2.3,Linux x86_64,59.9880024,,,,,,,,,,,,,,,,,,,,,
,,,,,,5,0,5,0,1,0,001,2022-04-19_11h41.08.688,Digit Span Task,2021.2.3,Linux x86_64,59.9880024,,,,,,,,,,,,,,,,,,,,,
,,,,,,6,0,6,0,1,0,001,2022-04-19_11h41.08.688,Digit Span Task,2021.2.3,Linux x86_64,59.9880024,,,,,,,,,,,,,,,,,,,,,
,,,,,,7,0,7,0,1,0,001,2022-04-19_11h41.08.688,Digit Span Task,2021.2.3,Linux x86_64,59.9880024,,,,,,,,,,,,,,,,,,,,,
,,,,,,8,0,8,0,1,0,001,2022-04-19_11h41.08.688,Digit Span Task,2021.2.3,Linux x86_64,59.9880024,,,,,,,,,,,,,,,,,,,,,
,,,,,,,,,,,0,001,2022-04-19_11h41.08.688,Digit Span Task,2021.2.3,Linux x86_64,59.9880024,567209127,0,-0.085860888,-0.40850242,1,0,0,cont_button,0,1,1,1,1,9,576270919,,,,,,
,,,,,,0,0,0,0,1,0,001,2022-04-19_11h41.08.688,Digit Span Task,2021.2.3,Linux x86_64,59.9880024,,,,,,,,,,,,,,,,,,,,,
,,,,,,1,0,1,0,1,0,001,2022-04-19_11h41.08.688,Digit Span Task,2021.2.3,Linux x86_64,59.9880024,,,,,,,,,,,,,,,,,,,,,
,,,,,,2,0,2,0,1,0,001,2022-04-19_11h41.08.688,Digit Span Task,2021.2.3,Linux x86_64,59.9880024,,,,,,,,,,,,,,,,,,,,,
,,,,,,3,0,3,0,1,0,001,2022-04-19_11h41.08.688,Digit Span Task,2021.2.3,Linux x86_64,59.9880024,,,,,,,,,,,,,,,,,,,,,
,,,,,,4,0,4,0,1,0,001,2022-04-19_11h41.08.688,Digit Span Task,2021.2.3,Linux x86_64,59.9880024,,,,,,,,,,,,,,,,,,,,,
,,,,,,5,0,5,0,1,0,001,2022-04-19_11h41.08.688,Digit Span Task,2021.2.3,Linux x86_64,59.9880024,,,,,,,,,,,,,,,,,,,,,
,,,,,,6,0,6,0,1,0,001,2022-04-19_11h41.08.688,Digit Span Task,2021.2.3,Linux x86_64,59.9880024,,,,,,,,,,,,,,,,,,,,,
,,,,,,7,0,7,0,1,0,001,2022-04-19_11h41.08.688,Digit Span Task,2021.2.3,Linux x86_64,59.9880024,,,,,,,,,,,,,,,,,,,,,
,,,,,,8,0,8,0,1,0,001,2022-04-19_11h41.08.688,Digit Span Task,2021.2.3,Linux x86_64,59.9880024,,,,,,,,,,,,,,,,,,,,,
,,,,,,,,,,,0,001,2022-04-19_11h41.08.688,Digit Span Task,2021.2.3,Linux x86_64,59.9880024,6869955179,0,-0.057374954,-0.390086651,1,0,0,cont_button,0,2,2,2,1,9,688655957,,,,,,
,,,,,,,,,,,0,001,2022-04-19_11h41.08.688,Digit Span Task,2021.2.3,Linux x86_64,59.9880024,,,,,,,,,,,,,,,,0,6,6,6,1,nine.xlsx
,,,,,,0,0,0,0,1,0,001,2022-04-19_11h41.08.688,Digit Span Task,2021.2.3,Linux x86_64,59.9880024,,,,,,,,,,,,,,,,,,,,,
,,,,,,1,0,1,0,1,0,001,2022-04-19_11h41.08.688,Digit Span Task,2021.2.3,Linux x86_64,59.9880024,,,,,,,,,,,,,,,,,,,,,
,,,,,,2,0,2,0,1,0,001,2022-04-19_11h41.08.688,Digit Span Task,2021.2.3,Linux x86_64,59.9880024,,,,,,,,,,,,,,,,,,,,,
,,,,,,3,0,3,0,1,0,001,2022-04-19_11h41.08.688,Digit Span Task,2021.2.3,Linux x86_64,59.9880024,,,,,,,,,,,,,,,,,,,,,
,,,,,,4,0,4,0,1,0,001,2022-04-19_11h41.08.688,Digit Span Task,2021.2.3,Linux x86_64,59.9880024,,,,,,,,,,,,,,,,,,,,,
,,,,,,5,0,5,0,1,0,001,2022-04-19_11h41.08.688,Digit Span Task,2021.2.3,Linux x86_64,59.9880024,,,,,,,,,,,,,,,,,,,,,
,,,,,,6,0,6,0,1,0,001,2022-04-19_11h41.08.688,Digit Span Task,2021.2.3,Linux x86_64,59.9880024,,,,,,,,,,,,,,,,,,,,,
,,,,,,7,0,7,0,1,0,001,2022-04-19_11h41.08.688,Digit Span Task,2021.2.3,Linux x86_64,59.9880024,,,,,,,,,,,,,,,,,,,,,
,,,,,,8,0,8,0,1,0,001,2022-04-19_11h41.08.688,Digit Span Task,2021.2.3,Linux x86_64,59.9880024,,,,,,,,,,,,,,,,,,,,,
,,,,,,9,0,9,0,1,0,001,2022-04-19_11h41.08.688,Digit Span Task,2021.2.3,Linux x86_64,59.9880024,,,,,,,,,,,,,,,,,,,,,
,,,,,,,,,,,0,001,2022-04-19_11h41.08.688,Digit Span Task,2021.2.3,Linux x86_64,59.9880024,643920080,0,-0.060024738,-0.409062703,1,0,0,cont_button,0,0,0,0,1,10,6432900801,,,,,,
,,,,,,0,0,0,0,1,0,001,2022-04-19_11h41.08.688,Digit Span Task,2021.2.3,Linux x86_64,59.9880024,,,,,,,,,,,,,,,,,,,,,
,,,,,,1,0,1,0,1,0,001,2022-04-19_11h41.08.688,Digit Span Task,2021.2.3,Linux x86_64,59.9880024,,,,,,,,,,,,,,,,,,,,,
,,,,,,2,0,2,0,1,0,001,2022-04-19_11h41.08.688,Digit Span Task,2021.2.3,Linux x86_64,59.9880024,,,,,,,,,,,,,,,,,,,,,
,,,,,,3,0,3,0,1,0,001,2022-04-19_11h41.08.688,Digit Span Task,2021.2.3,Linux x86_64,59.9880024,,,,,,,,,,,,,,,,,,,,,
,,,,,,4,0,4,0,1,0,001,2022-04-19_11h41.08.688,Digit Span Task,2021.2.3,Linux x86_64,59.9880024,,,,,,,,,,,,,,,,,,,,,
,,,,,,5,0,5,0,1,0,001,2022-04-19_11h41.08.688,Digit Span Task,2021.2.3,Linux x86_64,59.9880024,,,,,,,,,,,,,,,,,,,,,
,,,,,,6,0,6,0,1,0,001,2022-04-19_11h41.08.688,Digit Span Task,2021.2.3,Linux x86_64,59.9880024,,,,,,,,,,,,,,,,,,,,,
,,,,,,7,0,7,0,1,0,001,2022-04-19_11h41.08.688,Digit Span Task,2021.2.3,Linux x86_64,59.9880024,,,,,,,,,,,,,,,,,,,,,
,,,,,,8,0,8,0,1,0,001,2022-04-19_11h41.08.688,Digit Span Task,2021.2.3,Linux x86_64,59.9880024,,,,,,,,,,,,,,,,,,,,,
,,,,,,9,0,9,0,1,0,001,2022-04-19_11h41.08.688,Digit Span Task,2021.2.3,Linux x86_64,59.9880024,,,,,,,,,,,,,,,,,,,,,
,,,,,,,,,,,0,001,2022-04-19_11h41.08.688,Digit Span Task,2021.2.3,Linux x86_64,59.9880024,6468327,0,-0.082208872,-0.377625704,1,0,0,cont_button,0,1,1,1,1,10,8467348927,,,,,,
,,,,,,0,0,0,0,1,0,001,2022-04-19_11h41.08.688,Digit Span Task,2021.2.3,Linux x86_64,59.9880024,,,,,,,,,,,,,,,,,,,,,
,,,,,,1,0,1,0,1,0,001,2022-04-19_11h41.08.688,Digit Span Task,2021.2.3,Linux x86_64,59.9880024,,,,,,,,,,,,,,,,,,,,,
,,,,,,2,0,2,0,1,0,001,2022-04-19_11h41.08.688,Digit Span Task,2021.2.3,Linux x86_64,59.9880024,,,,,,,,,,,,,,,,,,,,,
,,,,,,3,0,3,0,1,0,001,2022-04-19_11h41.08.688,Digit Span Task,2021.2.3,Linux x86_64,59.9880024,,,,,,,,,,,,,,,,,,,,,
,,,,,,4,0,4,0,1,0,001,2022-04-19_11h41.08.688,Digit Span Task,2021.2.3,Linux x86_64,59.9880024,,,,,,,,,,,,,,,,,,,,,
,,,,,,5,0,5,0,1,0,001,2022-04-19_11h41.08.688,Digit Span Task,2021.2.3,Linux x86_64,59.9880024,,,,,,,,,,,,,,,,,,,,,
,,,,,,6,0,6,0,1,0,001,2022-04-19_11h41.08.688,Digit Span Task,2021.2.3,Linux x86_64,59.9880024,,,,,,,,,,,,,,,,,,,,,
,,,,,,7,0,7,0,1,0,001,2022-04-19_11h41.08.688,Digit Span Task,2021.2.3,Linux x86_64,59.9880024,,,,,,,,,,,,,,,,,,,,,
,,,,,,8,0,8,0,1,0,001,2022-04-19_11h41.08.688,Digit Span Task,2021.2.3,Linux x86_64,59.9880024,,,,,,,,,,,,,,,,,,,,,
,,,,,,9,0,9,0,1,0,001,2022-04-19_11h41.08.688,Digit Span Task,2021.2.3,Linux x86_64,59.9880024,,,,,,,,,,,,,,,,,,,,,
,,,,,,,,,,,0,001,2022-04-19_11h41.08.688,Digit Span Task,2021.2.3,Linux x86_64,59.9880024,41894,0,-0.117313941,-0.399009546,1,0,0,cont_button,0,2,2,2,1,10,4184946413,,,,,,
,,,,,,,,,,,0,001,2022-04-19_11h41.08.688,Digit Span Task,2021.2.3,Linux x86_64,59.9880024,,,,,,,,,,,,,,,,0,7,7,7,1,ten.xlsx
,,,,,,0,0,0,0,1,0,001,2022-04-19_11h41.08.688,Digit Span Task,2021.2.3,Linux x86_64,59.9880024,,,,,,,,,,,,,,,,,,,,,
,,,,,,1,0,1,0,1,0,001,2022-04-19_11h41.08.688,Digit Span Task,2021.2.3,Linux x86_64,59.9880024,,,,,,,,,,,,,,,,,,,,,
,,,,,,2,0,2,0,1,0,001,2022-04-19_11h41.08.688,Digit Span Task,2021.2.3,Linux x86_64,59.9880024,,,,,,,,,,,,,,,,,,,,,
,,,,,,3,0,3,0,1,0,001,2022-04-19_11h41.08.688,Digit Span Task,2021.2.3,Linux x86_64,59.9880024,,,,,,,,,,,,,,,,,,,,,
,,,,,,4,0,4,0,1,0,001,2022-04-19_11h41.08.688,Digit Span Task,2021.2.3,Linux x86_64,59.9880024,,,,,,,,,,,,,,,,,,,,,
,,,,,,5,0,5,0,1,0,001,2022-04-19_11h41.08.688,Digit Span Task,2021.2.3,Linux x86_64,59.9880024,,,,,,,,,,,,,,,,,,,,,
,,,,,,6,0,6,0,1,0,001,2022-04-19_11h41.08.688,Digit Span Task,2021.2.3,Linux x86_64,59.9880024,,,,,,,,,,,,,,,,,,,,,
,,,,,,7,0,7,0,1,0,001,2022-04-19_11h41.08.688,Digit Span Task,2021.2.3,Linux x86_64,59.9880024,,,,,,,,,,,,,,,,,,,,,
,,,,,,8,0,8,0,1,0,001,2022-04-19_11h41.08.688,Digit Span Task,2021.2.3,Linux x86_64,59.9880024,,,,,,,,,,,,,,,,,,,,,
,,,,,,9,0,9,0,1,0,001,2022-04-19_11h41.08.688,Digit Span Task,2021.2.3,Linux x86_64,59.9880024,,,,,,,,,,,,,,,,,,,,,
,,,,,,10,0,10,0,1,0,001,2022-04-19_11h41.08.688,Digit Span Task,2021.2.3,Linux x86_64,59.9880024,,,,,,,,,,,,,,,,,,,,,
,,,,,,,,,,,0,001,2022-04-19_11h41.08.688,Digit Span Task,2021.2.3,Linux x86_64,59.9880024,3209740,0,-0.006859303,-0.384641409,1,0,0,cont_button,0,0,0,0,1,11,73290740563,,,,,,
,,,,,,0,0,0,0,1,0,001,2022-04-19_11h41.08.688,Digit Span Task,2021.2.3,Linux x86_64,59.9880024,,,,,,,,,,,,,,,,,,,,,
,,,,,,1,0,1,0,1,0,001,2022-04-19_11h41.08.688,Digit Span Task,2021.2.3,Linux x86_64,59.9880024,,,,,,,,,,,,,,,,,,,,,
,,,,,,2,0,2,0,1,0,001,2022-04-19_11h41.08.688,Digit Span Task,2021.2.3,Linux x86_64,59.9880024,,,,,,,,,,,,,,,,,,,,,
,,,,,,3,0,3,0,1,0,001,2022-04-19_11h41.08.688,Digit Span Task,2021.2.3,Linux x86_64,59.9880024,,,,,,,,,,,,,,,,,,,,,
,,,,,,4,0,4,0,1,0,001,2022-04-19_11h41.08.688,Digit Span Task,2021.2.3,Linux x86_64,59.9880024,,,,,,,,,,,,,,,,,,,,,
,,,,,,5,0,5,0,1,0,001,2022-04-19_11h41.08.688,Digit Span Task,2021.2.3,Linux x86_64,59.9880024,,,,,,,,,,,,,,,,,,,,,
,,,,,,6,0,6,0,1,0,001,2022-04-19_11h41.08.688,Digit Span Task,2021.2.3,Linux x86_64,59.9880024,,,,,,,,,,,,,,,,,,,,,
,,,,,,7,0,7,0,1,0,001,2022-04-19_11h41.08.688,Digit Span Task,2021.2.3,Linux x86_64,59.9880024,,,,,,,,,,,,,,,,,,,,,
,,,,,,8,0,8,0,1,0,001,2022-04-19_11h41.08.688,Digit Span Task,2021.2.3,Linux x86_64,59.9880024,,,,,,,,,,,,,,,,,,,,,
,,,,,,9,0,9,0,1,0,001,2022-04-19_11h41.08.688,Digit Span Task,2021.2.3,Linux x86_64,59.9880024,,,,,,,,,,,,,,,,,,,,,
,,,,,,10,0,10,0,1,0,001,2022-04-19_11h41.08.688,Digit Span Task,2021.2.3,Linux x86_64,59.9880024,,,,,,,,,,,,,,,,,,,,,
,,,,,,,,,,,0,001,2022-04-19_11h41.08.688,Digit Span Task,2021.2.3,Linux x86_64,59.9880024,49874,0,-0.022963603,-0.391628345,1,0,0,cont_button,0,1,1,1,1,11,74948772224,,,,,,
,,,,,,0,0,0,0,1,0,001,2022-04-19_11h41.08.688,Digit Span Task,2021.2.3,Linux x86_64,59.9880024,,,,,,,,,,,,,,,,,,,,,
,,,,,,1,0,1,0,1,0,001,2022-04-19_11h41.08.688,Digit Span Task,2021.2.3,Linux x86_64,59.9880024,,,,,,,,,,,,,,,,,,,,,
,,,,,,2,0,2,0,1,0,001,2022-04-19_11h41.08.688,Digit Span Task,2021.2.3,Linux x86_64,59.9880024,,,,,,,,,,,,,,,,,,,,,
,,,,,,3,0,3,0,1,0,001,2022-04-19_11h41.08.688,Digit Span Task,2021.2.3,Linux x86_64,59.9880024,,,,,,,,,,,,,,,,,,,,,
,,,,,,4,0,4,0,1,0,001,2022-04-19_11h41.08.688,Digit Span Task,2021.2.3,Linux x86_64,59.9880024,,,,,,,,,,,,,,,,,,,,,
,,,,,,5,0,5,0,1,0,001,2022-04-19_11h41.08.688,Digit Span Task,2021.2.3,Linux x86_64,59.9880024,,,,,,,,,,,,,,,,,,,,,
,,,,,,6,0,6,0,1,0,001,2022-04-19_11h41.08.688,Digit Span Task,2021.2.3,Linux x86_64,59.9880024,,,,,,,,,,,,,,,,,,,,,
,,,,,,7,0,7,0,1,0,001,2022-04-19_11h41.08.688,Digit Span Task,2021.2.3,Linux x86_64,59.9880024,,,,,,,,,,,,,,,,,,,,,
,,,,,,8,0,8,0,1,0,001,2022-04-19_11h41.08.688,Digit Span Task,2021.2.3,Linux x86_64,59.9880024,,,,,,,,,,,,,,,,,,,,,
,,,,,,9,0,9,0,1,0,001,2022-04-19_11h41.08.688,Digit Span Task,2021.2.3,Linux x86_64,59.9880024,,,,,,,,,,,,,,,,,,,,,
,,,,,,10,0,10,0,1,0,001,2022-04-19_11h41.08.688,Digit Span Task,2021.2.3,Linux x86_64,59.9880024,,,,,,,,,,,,,,,,,,,,,
,,,,,,,,,,,0,001,2022-04-19_11h41.08.688,Digit Span Task,2021.2.3,Linux x86_64,59.9880024,97480622,0,-0.022671302,-0.419074217,1,0,0,cont_button,0,2,2,2,1,11,97084622072,,,,,,
,,,,,,,,,,,0,001,2022-04-19_11h41.08.688,Digit Span Task,2021.2.3,Linux x86_64,59.9880024,,,,,,,,,,,,,,,,0,8,8,8,1,eleven.xlsx
,,,,,,0,0,0,0,1,0,001,2022-04-19_11h41.08.688,Digit Span Task,2021.2.3,Linux x86_64,59.9880024,,,,,,,,,,,,,,,,,,,,,
,,,,,,1,0,1,0,1,0,001,2022-04-19_11h41.08.688,Digit Span Task,2021.2.3,Linux x86_64,59.9880024,,,,,,,,,,,,,,,,,,,,,
,,,,,,2,0,2,0,1,0,001,2022-04-19_11h41.08.688,Digit Span Task,2021.2.3,Linux x86_64,59.9880024,,,,,,,,,,,,,,,,,,,,,
,,,,,,3,0,3,0,1,0,001,2022-04-19_11h41.08.688,Digit Span Task,2021.2.3,Linux x86_64,59.9880024,,,,,,,,,,,,,,,,,,,,,
,,,,,,4,0,4,0,1,0,001,2022-04-19_11h41.08.688,Digit Span Task,2021.2.3,Linux x86_64,59.9880024,,,,,,,,,,,,,,,,,,,,,
,,,,,,5,0,5,0,1,0,001,2022-04-19_11h41.08.688,Digit Span Task,2021.2.3,Linux x86_64,59.9880024,,,,,,,,,,,,,,,,,,,,,
,,,,,,6,0,6,0,1,0,001,2022-04-19_11h41.08.688,Digit Span Task,2021.2.3,Linux x86_64,59.9880024,,,,,,,,,,,,,,,,,,,,,
,,,,,,7,0,7,0,1,0,001,2022-04-19_11h41.08.688,Digit Span Task,2021.2.3,Linux x86_64,59.9880024,,,,,,,,,,,,,,,,,,,,,
,,,,,,8,0,8,0,1,0,001,2022-04-19_11h41.08.688,Digit Span Task,2021.2.3,Linux x86_64,59.9880024,,,,,,,,,,,,,,,,,,,,,
,,,,,,9,0,9,0,1,0,001,2022-04-19_11h41.08.688,Digit Span Task,2021.2.3,Linux x86_64,59.9880024,,,,,,,,,,,,,,,,,,,,,
,,,,,,10,0,10,0,1,0,001,2022-04-19_11h41.08.688,Digit Span Task,2021.2.3,Linux x86_64,59.9880024,,,,,,,,,,,,,,,,,,,,,
,,,,,,11,0,11,0,1,0,001,2022-04-19_11h41.08.688,Digit Span Task,2021.2.3,Linux x86_64,59.9880024,,,,,,,,,,,,,,,,,,,,,
,,,,,,,,,,,0,001,2022-04-19_11h41.08.688,Digit Span Task,2021.2.3,Linux x86_64,59.9880024,64089803,0,-0.027334531,-0.409194231,1,0,0,cont_button,0,0,0,0,1,12,6.81346E+11,,,,,,
,,,,,,0,0,0,0,1,0,001,2022-04-19_11h41.08.688,Digit Span Task,2021.2.3,Linux x86_64,59.9880024,,,,,,,,,,,,,,,,,,,,,
,,,,,,1,0,1,0,1,0,001,2022-04-19_11h41.08.688,Digit Span Task,2021.2.3,Linux x86_64,59.9880024,,,,,,,,,,,,,,,,,,,,,
,,,,,,2,0,2,0,1,0,001,2022-04-19_11h41.08.688,Digit Span Task,2021.2.3,Linux x86_64,59.9880024,,,,,,,,,,,,,,,,,,,,,
,,,,,,3,0,3,0,1,0,001,2022-04-19_11h41.08.688,Digit Span Task,2021.2.3,Linux x86_64,59.9880024,,,,,,,,,,,,,,,,,,,,,
,,,,,,4,0,4,0,1,0,001,2022-04-19_11h41.08.688,Digit Span Task,2021.2.3,Linux x86_64,59.9880024,,,,,,,,,,,,,,,,,,,,,
,,,,,,5,0,5,0,1,0,001,2022-04-19_11h41.08.688,Digit Span Task,2021.2.3,Linux x86_64,59.9880024,,,,,,,,,,,,,,,,,,,,,
,,,,,,6,0,6,0,1,0,001,2022-04-19_11h41.08.688,Digit Span Task,2021.2.3,Linux x86_64,59.9880024,,,,,,,,,,,,,,,,,,,,,
,,,,,,7,0,7,0,1,0,001,2022-04-19_11h41.08.688,Digit Span Task,2021.2.3,Linux x86_64,59.9880024,,,,,,,,,,,,,,,,,,,,,
,,,,,,8,0,8,0,1,0,001,2022-04-19_11h41.08.688,Digit Span Task,2021.2.3,Linux x86_64,59.9880024,,,,,,,,,,,,,,,,,,,,,
,,,,,,9,0,9,0,1,0,001,2022-04-19_11h41.08.688,Digit Span Task,2021.2.3,Linux x86_64,59.9880024,,,,,,,,,,,,,,,,,,,,,
,,,,,,10,0,10,0,1,0,001,2022-04-19_11h41.08.688,Digit Span Task,2021.2.3,Linux x86_64,59.9880024,,,,,,,,,,,,,,,,,,,,,
,,,,,,11,0,11,0,1,0,001,2022-04-19_11h41.08.688,Digit Span Task,2021.2.3,Linux x86_64,59.9880024,,,,,,,,,,,,,,,,,,,,,
,,,,,,,,,,,0,001,2022-04-19_11h41.08.688,Digit Span Task,2021.2.3,Linux x86_64,59.9880024,872396,0,-0.043164174,-0.386308829,1,0,0,cont_button,0,1,1,1,1,12,8.7238E+11,,,,,,
,,,,,,0,0,0,0,1,0,001,2022-04-19_11h41.08.688,Digit Span Task,2021.2.3,Linux x86_64,59.9880024,,,,,,,,,,,,,,,,,,,,,
,,,,,,1,0,1,0,1,0,001,2022-04-19_11h41.08.688,Digit Span Task,2021.2.3,Linux x86_64,59.9880024,,,,,,,,,,,,,,,,,,,,,
,,,,,,2,0,2,0,1,0,001,2022-04-19_11h41.08.688,Digit Span Task,2021.2.3,Linux x86_64,59.9880024,,,,,,,,,,,,,,,,,,,,,
,,,,,,3,0,3,0,1,0,001,2022-04-19_11h41.08.688,Digit Span Task,2021.2.3,Linux x86_64,59.9880024,,,,,,,,,,,,,,,,,,,,,
,,,,,,4,0,4,0,1,0,001,2022-04-19_11h41.08.688,Digit Span Task,2021.2.3,Linux x86_64,59.9880024,,,,,,,,,,,,,,,,,,,,,
,,,,,,5,0,5,0,1,0,001,2022-04-19_11h41.08.688,Digit Span Task,2021.2.3,Linux x86_64,59.9880024,,,,,,,,,,,,,,,,,,,,,
,,,,,,6,0,6,0,1,0,001,2022-04-19_11h41.08.688,Digit Span Task,2021.2.3,Linux x86_64,59.9880024,,,,,,,,,,,,,,,,,,,,,
,,,,,,7,0,7,0,1,0,001,2022-04-19_11h41.08.688,Digit Span Task,2021.2.3,Linux x86_64,59.9880024,,,,,,,,,,,,,,,,,,,,,
,,,,,,8,0,8,0,1,0,001,2022-04-19_11h41.08.688,Digit Span Task,2021.2.3,Linux x86_64,59.9880024,,,,,,,,,,,,,,,,,,,,,
,,,,,,9,0,9,0,1,0,001,2022-04-19_11h41.08.688,Digit Span Task,2021.2.3,Linux x86_64,59.9880024,,,,,,,,,,,,,,,,,,,,,
,,,,,,10,0,10,0,1,0,001,2022-04-19_11h41.08.688,Digit Span Task,2021.2.3,Linux x86_64,59.9880024,,,,,,,,,,,,,,,,,,,,,
,,,,,,11,0,11,0,1,0,001,2022-04-19_11h41.08.688,Digit Span Task,2021.2.3,Linux x86_64,59.9880024,,,,,,,,,,,,,,,,,,,,,
,,,,,,,,,,,0,001,2022-04-19_11h41.08.688,Digit Span Task,2021.2.3,Linux x86_64,59.9880024,,0,-0.039369901,-0.399688403,1,0,0,cont_button,0,2,2,2,1,12,2.41072E+11,,,,,,
,,,,,,,,,,,0,001,2022-04-19_11h41.08.688,Digit Span Task,2021.2.3,Linux x86_64,59.9880024,,,,,,,,,,,,,,,,0,9,9,9,1,twelve.xlsx
,,,,,,0,0,0,0,1,0,001,2022-04-19_11h41.08.688,Digit Span Task,2021.2.3,Linux x86_64,59.9880024,,,,,,,,,,,,,,,,,,,,,
,,,,,,1,0,1,0,1,0,001,2022-04-19_11h41.08.688,Digit Span Task,2021.2.3,Linux x86_64,59.9880024,,,,,,,,,,,,,,,,,,,,,
,,,,,,2,0,2,0,1,0,001,2022-04-19_11h41.08.688,Digit Span Task,2021.2.3,Linux x86_64,59.9880024,,,,,,,,,,,,,,,,,,,,,
,,,,,,,,,,,0,001,2022-04-19_11h41.08.688,Digit Span Task,2021.2.3,Linux x86_64,59.9880024,217,1,-0.005225499,-0.379490217,1,0,0,cont_button,0,0,0,0,1,3,217,,,,,,
,,,,,,0,0,0,0,1,0,001,2022-04-19_11h41.08.688,Digit Span Task,2021.2.3,Linux x86_64,59.9880024,,,,,,,,,,,,,,,,,,,,,
,,,,,,1,0,1,0,1,0,001,2022-04-19_11h41.08.688,Digit Span Task,2021.2.3,Linux x86_64,59.9880024,,,,,,,,,,,,,,,,,,,,,
,,,,,,2,0,2,0,1,0,001,2022-04-19_11h41.08.688,Digit Span Task,2021.2.3,Linux x86_64,59.9880024,,,,,,,,,,,,,,,,,,,,,
,,,,,,,,,,,0,001,2022-04-19_11h41.08.688,Digit Span Task,2021.2.3,Linux x86_64,59.9880024,486,1,0.015120427,-0.410074155,1,0,0,cont_button,0,1,1,1,1,3,486,,,,,,
,,,,,,0,0,0,0,1,0,001,2022-04-19_11h41.08.688,Digit Span Task,2021.2.3,Linux x86_64,59.9880024,,,,,,,,,,,,,,,,,,,,,
,,,,,,1,0,1,0,1,0,001,2022-04-19_11h41.08.688,Digit Span Task,2021.2.3,Linux x86_64,59.9880024,,,,,,,,,,,,,,,,,,,,,
,,,,,,2,0,2,0,1,0,001,2022-04-19_11h41.08.688,Digit Span Task,2021.2.3,Linux x86_64,59.9880024,,,,,,,,,,,,,,,,,,,,,
,,,,,,,,,,,0,001,2022-04-19_11h41.08.688,Digit Span Task,2021.2.3,Linux x86_64,59.9880024,760,1,0.028940201,-0.425275246,1,0,0,cont_button,0,2,2,2,1,3,760,,,,,,
,,,,,,,,,,,0,001,2022-04-19_11h41.08.688,Digit Span Task,2021.2.3,Linux x86_64,59.9880024,,,,,,,,,,,,,,,,1,0,10,0,1,three.xlsx
,,,,,,0,0,0,0,1,0,001,2022-04-19_11h41.08.688,Digit Span Task,2021.2.3,Linux x86_64,59.9880024,,,,,,,,,,,,,,,,,,,,,
,,,,,,1,0,1,0,1,0,001,2022-04-19_11h41.08.688,Digit Span Task,2021.2.3,Linux x86_64,59.9880024,,,,,,,,,,,,,,,,,,,,,
,,,,,,2,0,2,0,1,0,001,2022-04-19_11h41.08.688,Digit Span Task,2021.2.3,Linux x86_64,59.9880024,,,,,,,,,,,,,,,,,,,,,
,,,,,,3,0,3,0,1,0,001,2022-04-19_11h41.08.688,Digit Span Task,2021.2.3,Linux x86_64,59.9880024,,,,,,,,,,,,,,,,,,,,,
,,,,,,,,,,,0,001,2022-04-19_11h41.08.688,Digit Span Task,2021.2.3,Linux x86_64,59.9880024,3141,1,0.00422732,-0.406837702,1,0,0,cont_button,0,0,0,0,1,4,3141,,,,,,
,,,,,,0,0,0,0,1,0,001,2022-04-19_11h41.08.688,Digit Span Task,2021.2.3,Linux x86_64,59.9880024,,,,,,,,,,,,,,,,,,,,,
,,,,,,1,0,1,0,1,0,001,2022-04-19_11h41.08.688,Digit Span Task,2021.2.3,Linux x86_64,59.9880024,,,,,,,,,,,,,,,,,,,,,
,,,,,,2,0,2,0,1,0,001,2022-04-19_11h41.08.688,Digit Span Task,2021.2.3,Linux x86_64,59.9880024,,,,,,,,,,,,,,,,,,,,,
,,,,,,3,0,3,0,1,0,001,2022-04-19_11h41.08.688,Digit Span Task,2021.2.3,Linux x86_64,59.9880024,,,,,,,,,,,,,,,,,,,,,
,,,,,,,,,,,0,001,2022-04-19_11h41.08.688,Digit Span Task,2021.2.3,Linux x86_64,59.9880024,6351,1,0.011924982,-0.415390174,1,0,0,cont_button,0,1,1,1,1,4,6351,,,,,,
,,,,,,0,0,0,0,1,0,001,2022-04-19_11h41.08.688,Digit Span Task,2021.2.3,Linux x86_64,59.9880024,,,,,,,,,,,,,,,,,,,,,
,,,,,,1,0,1,0,1,0,001,2022-04-19_11h41.08.688,Digit Span Task,2021.2.3,Linux x86_64,59.9880024,,,,,,,,,,,,,,,,,,,,,
,,,,,,2,0,2,0,1,0,001,2022-04-19_11h41.08.688,Digit Span Task,2021.2.3,Linux x86_64,59.9880024,,,,,,,,,,,,,,,,,,,,,
,,,,,,3,0,3,0,1,0,001,2022-04-19_11h41.08.688,Digit Span Task,2021.2.3,Linux x86_64,59.9880024,,,,,,,,,,,,,,,,,,,,,
,,,,,,,,,,,0,001,2022-04-19_11h41.08.688,Digit Span Task,2021.2.3,Linux x86_64,59.9880024,2391,1,-0.074843725,-0.421265125,1,0,0,cont_button,0,2,2,2,1,4,2391,,,,,,
,,,,,,,,,,,0,001,2022-04-19_11h41.08.688,Digit Span Task,2021.2.3,Linux x86_64,59.9880024,,,,,,,,,,,,,,,,1,1,11,1,1,four.xlsx
,,,,,,0,0,0,0,1,0,001,2022-04-19_11h41.08.688,Digit Span Task,2021.2.3,Linux x86_64,59.9880024,,,,,,,,,,,,,,,,,,,,,
,,,,,,1,0,1,0,1,0,001,2022-04-19_11h41.08.688,Digit Span Task,2021.2.3,Linux x86_64,59.9880024,,,,,,,,,,,,,,,,,,,,,
,,,,,,2,0,2,0,1,0,001,2022-04-19_11h41.08.688,Digit Span Task,2021.2.3,Linux x86_64,59.9880024,,,,,,,,,,,,,,,,,,,,,
,,,,,,3,0,3,0,1,0,001,2022-04-19_11h41.08.688,Digit Span Task,2021.2.3,Linux x86_64,59.9880024,,,,,,,,,,,,,,,,,,,,,
,,,,,,4,0,4,0,1,0,001,2022-04-19_11h41.08.688,Digit Span Task,2021.2.3,Linux x86_64,59.9880024,,,,,,,,,,,,,,,,,,,,,
,,,,,,,,,,,0,001,2022-04-19_11h41.08.688,Digit Span Task,2021.2.3,Linux x86_64,59.9880024,14932,1,0.040603161,-0.391933044,1,0,0,cont_button,0,0,0,0,1,5,14932,,,,,,
,,,,,,0,0,0,0,1,0,001,2022-04-19_11h41.08.688,Digit Span Task,2021.2.3,Linux x86_64,59.9880024,,,,,,,,,,,,,,,,,,,,,
,,,,,,1,0,1,0,1,0,001,2022-04-19_11h41.08.688,Digit Span Task,2021.2.3,Linux x86_64,59.9880024,,,,,,,,,,,,,,,,,,,,,
,,,,,,2,0,2,0,1,0,001,2022-04-19_11h41.08.688,Digit Span Task,2021.2.3,Linux x86_64,59.9880024,,,,,,,,,,,,,,,,,,,,,
,,,,,,3,0,3,0,1,0,001,2022-04-19_11h41.08.688,Digit Span Task,2021.2.3,Linux x86_64,59.9880024,,,,,,,,,,,,,,,,,,,,,
,,,,,,4,0,4,0,1,0,001,2022-04-19_11h41.08.688,Digit Span Task,2021.2.3,Linux x86_64,59.9880024,,,,,,,,,,,,,,,,,,,,,
,,,,,,,,,,,0,001,2022-04-19_11h41.08.688,Digit Span Task,2021.2.3,Linux x86_64,59.9880024,10646,1,0.079617659,-0.419594685,1,0,0,cont_button,0,1,1,1,1,5,10646,,,,,,
,,,,,,0,0,0,0,1,0,001,2022-04-19_11h41.08.688,Digit Span Task,2021.2.3,Linux x86_64,59.9880024,,,,,,,,,,,,,,,,,,,,,
,,,,,,1,0,1,0,1,0,001,2022-04-19_11h41.08.688,Digit Span Task,2021.2.3,Linux x86_64,59.9880024,,,,,,,,,,,,,,,,,,,,,
,,,,,,2,0,2,0,1,0,001,2022-04-19_11h41.08.688,Digit Span Task,2021.2.3,Linux x86_64,59.9880024,,,,,,,,,,,,,,,,,,,,,
,,,,,,3,0,3,0,1,0,001,2022-04-19_11h41.08.688,Digit Span Task,2021.2.3,Linux x86_64,59.9880024,,,,,,,,,,,,,,,,,,,,,
,,,,,,4,0,4,0,1,0,001,2022-04-19_11h41.08.688,Digit Span Task,2021.2.3,Linux x86_64,59.9880024,,,,,,,,,,,,,,,,,,,,,
,,,,,,,,,,,0,001,2022-04-19_11h41.08.688,Digit Span Task,2021.2.3,Linux x86_64,59.9880024,74832,1,0.04898111,-0.402180115,1,0,0,cont_button,0,2,2,2,1,5,74832,,,,,,
,,,,,,,,,,,0,001,2022-04-19_11h41.08.688,Digit Span Task,2021.2.3,Linux x86_64,59.9880024,,,,,,,,,,,,,,,,1,2,12,2,1,five.xlsx
,,,,,,0,0,0,0,1,0,001,2022-04-19_11h41.08.688,Digit Span Task,2021.2.3,Linux x86_64,59.9880024,,,,,,,,,,,,,,,,,,,,,
,,,,,,1,0,1,0,1,0,001,2022-04-19_11h41.08.688,Digit Span Task,2021.2.3,Linux x86_64,59.9880024,,,,,,,,,,,,,,,,,,,,,
,,,,,,2,0,2,0,1,0,001,2022-04-19_11h41.08.688,Digit Span Task,2021.2.3,Linux x86_64,59.9880024,,,,,,,,,,,,,,,,,,,,,
,,,,,,3,0,3,0,1,0,001,2022-04-19_11h41.08.688,Digit Span Task,2021.2.3,Linux x86_64,59.9880024,,,,,,,,,,,,,,,,,,,,,
,,,,,,4,0,4,0,1,0,001,2022-04-19_11h41.08.688,Digit Span Task,2021.2.3,Linux x86_64,59.9880024,,,,,,,,,,,,,,,,,,,,,
,,,,,,5,0,5,0,1,0,001,2022-04-19_11h41.08.688,Digit Span Task,2021.2.3,Linux x86_64,59.9880024,,,,,,,,,,,,,,,,,,,,,
,,,,,,,,,,,0,001,2022-04-19_11h41.08.688,Digit Span Task,2021.2.3,Linux x86_64,59.9880024,934648,1,-0.007565657,-0.415881395,1,0,0,cont_button,0,0,0,0,1,6,934648,,,,,,
,,,,,,0,0,0,0,1,0,001,2022-04-19_11h41.08.688,Digit Span Task,2021.2.3,Linux x86_64,59.9880024,,,,,,,,,,,,,,,,,,,,,
,,,,,,1,0,1,0,1,0,001,2022-04-19_11h41.08.688,Digit Span Task,2021.2.3,Linux x86_64,59.9880024,,,,,,,,,,,,,,,,,,,,,
,,,,,,2,0,2,0,1,0,001,2022-04-19_11h41.08.688,Digit Span Task,2021.2.3,Linux x86_64,59.9880024,,,,,,,,,,,,,,,,,,,,,
,,,,,,3,0,3,0,1,0,001,2022-04-19_11h41.08.688,Digit Span Task,2021.2.3,Linux x86_64,59.9880024,,,,,,,,,,,,,,,,,,,,,
,,,,,,4,0,4,0,1,0,001,2022-04-19_11h41.08.688,Digit Span Task,2021.2.3,Linux x86_64,59.9880024,,,,,,,,,,,,,,,,,,,,,
,,,,,,5,0,5,0,1,0,001,2022-04-19_11h41.08.688,Digit Span Task,2021.2.3,Linux x86_64,59.9880024,,,,,,,,,,,,,,,,,,,,,
