start_mouse.x,start_mouse.y,start_mouse.leftButton,start_mouse.midButton,start_mouse.rightButton,start_mouse.clicked_name,digitLoop.thisRepN,digitLoop.thisTrialN,digitLoop.thisN,digitLoop.thisIndex,digitLoop.ran,participant,session,date,expName,psychopyVersion,OS,frameRate,textbox.text,correct,mouse.x,mouse.y,mouse.leftButton,mouse.midButton,mouse.rightButton,mouse.clicked_name,trials.thisRepN,trials.thisTrialN,trials.thisN,trials.thisIndex,trials.ran,digitSpan,digits,blocks.thisRepN,blocks.thisTrialN,blocks.thisN,blocks.thisIndex,blocks.ran,condition_file
0.122654359,-0.392663399,1,0,0,cont_button,0,0,0,0,1,0,001,2022-04-13_15h30.22.790,Digit Span Task,2021.2.3,Linux x86_64,60.08893162,,,,,,,,,,,,,,,,,,,,,
,,,,,,1,0,1,0,1,0,001,2022-04-13_15h30.22.790,Digit Span Task,2021.2.3,Linux x86_64,60.08893162,,,,,,,,,,,,,,,,,,,,,
,,,,,,2,0,2,0,1,0,001,2022-04-13_15h30.22.790,Digit Span Task,2021.2.3,Linux x86_64,60.08893162,,,,,,,,,,,,,,,,,,,,,
,,,,,,,,,,,0,001,2022-04-13_15h30.22.790,Digit Span Task,2021.2.3,Linux x86_64,60.08893162,217,1,0.024624427,-0.387266874,1,0,0,cont_button,0,0,0,0,1,3,217,,,,,,
,,,,,,0,0,0,0,1,0,001,2022-04-13_15h30.22.790,Digit Span Task,2021.2.3,Linux x86_64,60.08893162,,,,,,,,,,,,,,,,,,,,,
,,,,,,1,0,1,0,1,0,001,2022-04-13_15h30.22.790,Digit Span Task,2021.2.3,Linux x86_64,60.08893162,,,,,,,,,,,,,,,,,,,,,
,,,,,,2,0,2,0,1,0,001,2022-04-13_15h30.22.790,Digit Span Task,2021.2.3,Linux x86_64,60.08893162,,,,,,,,,,,,,,,,,,,,,
,,,,,,,,,,,0,001,2022-04-13_15h30.22.790,Digit Span Task,2021.2.3,Linux x86_64,60.08893162,217486,0,0.093978326,-0.40512538,1,0,0,cont_button,0,1,1,1,1,3,486,,,,,,
,,,,,,0,0,0,0,1,0,001,2022-04-13_15h30.22.790,Digit Span Task,2021.2.3,Linux x86_64,60.08893162,,,,,,,,,,,,,,,,,,,,,
,,,,,,1,0,1,0,1,0,001,2022-04-13_15h30.22.790,Digit Span Task,2021.2.3,Linux x86_64,60.08893162,,,,,,,,,,,,,,,,,,,,,
,,,,,,2,0,2,0,1,0,001,2022-04-13_15h30.22.790,Digit Span Task,2021.2.3,Linux x86_64,60.08893162,,,,,,,,,,,,,,,,,,,,,
,,,,,,,,,,,0,001,2022-04-13_15h30.22.790,Digit Span Task,2021.2.3,Linux x86_64,60.08893162,760,1,-0.01925389,-0.415695985,1,0,0,cont_button,0,2,2,2,1,3,760,,,,,,
,,,,,,,,,,,0,001,2022-04-13_15h30.22.790,Digit Span Task,2021.2.3,Linux x86_64,60.08893162,,,,,,,,,,,,,,,,0,0,0,0,1,three.xlsx
,,,,,,0,0,0,0,1,0,001,2022-04-13_15h30.22.790,Digit Span Task,2021.2.3,Linux x86_64,60.08893162,,,,,,,,,,,,,,,,,,,,,
,,,,,,1,0,1,0,1,0,001,2022-04-13_15h30.22.790,Digit Span Task,2021.2.3,Linux x86_64,60.08893162,,,,,,,,,,,,,,,,,,,,,
,,,,,,2,0,2,0,1,0,001,2022-04-13_15h30.22.790,Digit Span Task,2021.2.3,Linux x86_64,60.08893162,,,,,,,,,,,,,,,,,,,,,
,,,,,,3,0,3,0,1,0,001,2022-04-13_15h30.22.790,Digit Span Task,2021.2.3,Linux x86_64,60.08893162,,,,,,,,,,,,,,,,,,,,,
,,,,,,,,,,,0,001,2022-04-13_15h30.22.790,Digit Span Task,2021.2.3,Linux x86_64,60.08893162,3141,1,0.014603774,-0.409838676,1,0,0,cont_button,0,0,0,0,1,4,3141,,,,,,
,,,,,,0,0,0,0,1,0,001,2022-04-13_15h30.22.790,Digit Span Task,2021.2.3,Linux x86_64,60.08893162,,,,,,,,,,,,,,,,,,,,,
,,,,,,1,0,1,0,1,0,001,2022-04-13_15h30.22.790,Digit Span Task,2021.2.3,Linux x86_64,60.08893162,,,,,,,,,,,,,,,,,,,,,
,,,,,,2,0,2,0,1,0,001,2022-04-13_15h30.22.790,Digit Span Task,2021.2.3,Linux x86_64,60.08893162,,,,,,,,,,,,,,,,,,,,,
,,,,,,3,0,3,0,1,0,001,2022-04-13_15h30.22.790,Digit Span Task,2021.2.3,Linux x86_64,60.08893162,,,,,,,,,,,,,,,,,,,,,
,,,,,,,,,,,0,001,2022-04-13_15h30.22.790,Digit Span Task,2021.2.3,Linux x86_64,60.08893162,6315,0,0.080179214,-0.401960929,1,0,0,cont_button,0,1,1,1,1,4,6351,,,,,,
,,,,,,0,0,0,0,1,0,001,2022-04-13_15h30.22.790,Digit Span Task,2021.2.3,Linux x86_64,60.08893162,,,,,,,,,,,,,,,,,,,,,
,,,,,,1,0,1,0,1,0,001,2022-04-13_15h30.22.790,Digit Span Task,2021.2.3,Linux x86_64,60.08893162,,,,,,,,,,,,,,,,,,,,,
,,,,,,2,0,2,0,1,0,001,2022-04-13_15h30.22.790,Digit Span Task,2021.2.3,Linux x86_64,60.08893162,,,,,,,,,,,,,,,,,,,,,
,,,,,,3,0,3,0,1,0,001,2022-04-13_15h30.22.790,Digit Span Task,2021.2.3,Linux x86_64,60.08893162,,,,,,,,,,,,,,,,,,,,,
,,,,,,,,,,,0,001,2022-04-13_15h30.22.790,Digit Span Task,2021.2.3,Linux x86_64,60.08893162,2391,1,0.09773914,-0.426069736,1,0,0,cont_button,0,2,2,2,1,4,2391,,,,,,
,,,,,,,,,,,0,001,2022-04-13_15h30.22.790,Digit Span Task,2021.2.3,Linux x86_64,60.08893162,,,,,,,,,,,,,,,,0,1,1,1,1,four.xlsx
,,,,,,0,0,0,0,1,0,001,2022-04-13_15h30.22.790,Digit Span Task,2021.2.3,Linux x86_64,60.08893162,,,,,,,,,,,,,,,,,,,,,
,,,,,,1,0,1,0,1,0,001,2022-04-13_15h30.22.790,Digit Span Task,2021.2.3,Linux x86_64,60.08893162,,,,,,,,,,,,,,,,,,,,,
,,,,,,2,0,2,0,1,0,001,2022-04-13_15h30.22.790,Digit Span Task,2021.2.3,Linux x86_64,60.08893162,,,,,,,,,,,,,,,,,,,,,
,,,,,,3,0,3,0,1,0,001,2022-04-13_15h30.22.790,Digit Span Task,2021.2.3,Linux x86_64,60.08893162,,,,,,,,,,,,,,,,,,,,,
,,,,,,4,0,4,0,1,0,001,2022-04-13_15h30.22.790,Digit Span Task,2021.2.3,Linux x86_64,60.08893162,,,,,,,,,,,,,,,,,,,,,
,,,,,,,,,,,0,001,2022-04-13_15h30.22.790,Digit Span Task,2021.2.3,Linux x86_64,60.08893162,14932,1,0.071757555,-0.425358852,1,0,0,cont_button,0,0,0,0,1,5,14932,,,,,,
,,,,,,0,0,0,0,1,0,001,2022-04-13_15h30.22.790,Digit Span Task,2021.2.3,Linux x86_64,60.08893162,,,,,,,,,,,,,,,,,,,,,
,,,,,,1,0,1,0,1,0,001,2022-04-13_15h30.22.790,Digit Span Task,2021.2.3,Linux x86_64,60.08893162,,,,,,,,,,,,,,,,,,,,,
,,,,,,2,0,2,0,1,0,001,2022-04-13_15h30.22.790,Digit Span Task,2021.2.3,Linux x86_64,60.08893162,,,,,,,,,,,,,,,,,,,,,
,,,,,,3,0,3,0,1,0,001,2022-04-13_15h30.22.790,Digit Span Task,2021.2.3,Linux x86_64,60.08893162,,,,,,,,,,,,,,,,,,,,,
,,,,,,4,0,4,0,1,0,001,2022-04-13_15h30.22.790,Digit Span Task,2021.2.3,Linux x86_64,60.08893162,,,,,,,,,,,,,,,,,,,,,
,,,,,,,,,,,0,001,2022-04-13_15h30.22.790,Digit Span Task,2021.2.3,Linux x86_64,60.08893162,10646,1,0.048605283,-0.406854471,1,0,0,cont_button,0,1,1,1,1,5,10646,,,,,,
,,,,,,0,0,0,0,1,0,001,2022-04-13_15h30.22.790,Digit Span Task,2021.2.3,Linux x86_64,60.08893162,,,,,,,,,,,,,,,,,,,,,
,,,,,,1,0,1,0,1,0,001,2022-04-13_15h30.22.790,Digit Span Task,2021.2.3,Linux x86_64,60.08893162,,,,,,,,,,,,,,,,,,,,,
,,,,,,2,0,2,0,1,0,001,2022-04-13_15h30.22.790,Digit Span Task,2021.2.3,Linux x86_64,60.08893162,,,,,,,,,,,,,,,,,,,,,
,,,,,,3,0,3,0,1,0,001,2022-04-13_15h30.22.790,Digit Span Task,2021.2.3,Linux x86_64,60.08893162,,,,,,,,,,,,,,,,,,,,,
,,,,,,4,0,4,0,1,0,001,2022-04-13_15h30.22.790,Digit Span Task,2021.2.3,Linux x86_64,60.08893162,,,,,,,,,,,,,,,,,,,,,
,,,,,,,,,,,0,001,2022-04-13_15h30.22.790,Digit Span Task,2021.2.3,Linux x86_64,60.08893162,74832,1,0.055731614,-0.375868241,1,0,0,cont_button,0,2,2,2,1,5,74832,,,,,,
,,,,,,,,,,,0,001,2022-04-13_15h30.22.790,Digit Span Task,2021.2.3,Linux x86_64,60.08893162,,,,,,,,,,,,,,,,0,2,2,2,1,five.xlsx
,,,,,,0,0,0,0,1,0,001,2022-04-13_15h30.22.790,Digit Span Task,2021.2.3,Linux x86_64,60.08893162,,,,,,,,,,,,,,,,,,,,,
,,,,,,1,0,1,0,1,0,001,2022-04-13_15h30.22.790,Digit Span Task,2021.2.3,Linux x86_64,60.08893162,,,,,,,,,,,,,,,,,,,,,
,,,,,,2,0,2,0,1,0,001,2022-04-13_15h30.22.790,Digit Span Task,2021.2.3,Linux x86_64,60.08893162,,,,,,,,,,,,,,,,,,,,,
,,,,,,3,0,3,0,1,0,001,2022-04-13_15h30.22.790,Digit Span Task,2021.2.3,Linux x86_64,60.08893162,,,,,,,,,,,,,,,,,,,,,
,,,,,,4,0,4,0,1,0,001,2022-04-13_15h30.22.790,Digit Span Task,2021.2.3,Linux x86_64,60.08893162,,,,,,,,,,,,,,,,,,,,,
,,,,,,5,0,5,0,1,0,001,2022-04-13_15h30.22.790,Digit Span Task,2021.2.3,Linux x86_64,60.08893162,,,,,,,,,,,,,,,,,,,,,
,,,,,,,,,,,0,001,2022-04-13_15h30.22.790,Digit Span Task,2021.2.3,Linux x86_64,60.08893162,934348,0,0.020232757,-0.429194927,1,0,0,cont_button,0,0,0,0,1,6,934648,,,,,,
,,,,,,0,0,0,0,1,0,001,2022-04-13_15h30.22.790,Digit Span Task,2021.2.3,Linux x86_64,60.08893162,,,,,,,,,,,,,,,,,,,,,
,,,,,,1,0,1,0,1,0,001,2022-04-13_15h30.22.790,Digit Span Task,2021.2.3,Linux x86_64,60.08893162,,,,,,,,,,,,,,,,,,,,,
,,,,,,2,0,2,0,1,0,001,2022-04-13_15h30.22.790,Digit Span Task,2021.2.3,Linux x86_64,60.08893162,,,,,,,,,,,,,,,,,,,,,
,,,,,,3,0,3,0,1,0,001,2022-04-13_15h30.22.790,Digit Span Task,2021.2.3,Linux x86_64,60.08893162,,,,,,,,,,,,,,,,,,,,,
,,,,,,4,0,4,0,1,0,001,2022-04-13_15h30.22.790,Digit Span Task,2021.2.3,Linux x86_64,60.08893162,,,,,,,,,,,,,,,,,,,,,
,,,,,,5,0,5,0,1,0,001,2022-04-13_15h30.22.790,Digit Span Task,2021.2.3,Linux x86_64,60.08893162,,,,,,,,,,,,,,,,,,,,,
,,,,,,,,,,,0,001,2022-04-13_15h30.22.790,Digit Span Task,2021.2.3,Linux x86_64,60.08893162,179370,0,0.055819114,-0.404205163,1,0,0,cont_button,0,1,1,1,1,6,179390,,,,,,
,,,,,,0,0,0,0,1,0,001,2022-04-13_15h30.22.790,Digit Span Task,2021.2.3,Linux x86_64,60.08893162,,,,,,,,,,,,,,,,,,,,,
,,,,,,1,0,1,0,1,0,001,2022-04-13_15h30.22.790,Digit Span Task,2021.2.3,Linux x86_64,60.08893162,,,,,,,,,,,,,,,,,,,,,
,,,,,,2,0,2,0,1,0,001,2022-04-13_15h30.22.790,Digit Span Task,2021.2.3,Linux x86_64,60.08893162,,,,,,,,,,,,,,,,,,,,,
,,,,,,3,0,3,0,1,0,001,2022-04-13_15h30.22.790,Digit Span Task,2021.2.3,Linux x86_64,60.08893162,,,,,,,,,,,,,,,,,,,,,
,,,,,,4,0,4,0,1,0,001,2022-04-13_15h30.22.790,Digit Span Task,2021.2.3,Linux x86_64,60.08893162,,,,,,,,,,,,,,,,,,,,,
,,,,,,5,0,5,0,1,0,001,2022-04-13_15h30.22.790,Digit Span Task,2021.2.3,Linux x86_64,60.08893162,,,,,,,,,,,,,,,,,,,,,
,,,,,,,,,,,0,001,2022-04-13_15h30.22.790,Digit Span Task,2021.2.3,Linux x86_64,60.08893162,408288,1,0.106802702,-0.410401742,1,0,0,cont_button,0,2,2,2,1,6,408288,,,,,,
,,,,,,,,,,,0,001,2022-04-13_15h30.22.790,Digit Span Task,2021.2.3,Linux x86_64,60.08893162,,,,,,,,,,,,,,,,0,3,3,3,1,six.xlsx
,,,,,,0,0,0,0,1,0,001,2022-04-13_15h30.22.790,Digit Span Task,2021.2.3,Linux x86_64,60.08893162,,,,,,,,,,,,,,,,,,,,,
,,,,,,1,0,1,0,1,0,001,2022-04-13_15h30.22.790,Digit Span Task,2021.2.3,Linux x86_64,60.08893162,,,,,,,,,,,,,,,,,,,,,
,,,,,,2,0,2,0,1,0,001,2022-04-13_15h30.22.790,Digit Span Task,2021.2.3,Linux x86_64,60.08893162,,,,,,,,,,,,,,,,,,,,,
,,,,,,3,0,3,0,1,0,001,2022-04-13_15h30.22.790,Digit Span Task,2021.2.3,Linux x86_64,60.08893162,,,,,,,,,,,,,,,,,,,,,
,,,,,,4,0,4,0,1,0,001,2022-04-13_15h30.22.790,Digit Span Task,2021.2.3,Linux x86_64,60.08893162,,,,,,,,,,,,,,,,,,,,,
,,,,,,5,0,5,0,1,0,001,2022-04-13_15h30.22.790,Digit Span Task,2021.2.3,Linux x86_64,60.08893162,,,,,,,,,,,,,,,,,,,,,
,,,,,,6,0,6,0,1,0,001,2022-04-13_15h30.22.790,Digit Span Task,2021.2.3,Linux x86_64,60.08893162,,,,,,,,,,,,,,,,,,,,,
,,,,,,,,,,,0,001,2022-04-13_15h30.22.790,Digit Span Task,2021.2.3,Linux x86_64,60.08893162,449823,0,0.094388088,-0.385551771,1,0,0,cont_button,0,0,0,0,1,7,4498237,,,,,,
,,,,,,0,0,0,0,1,0,001,2022-04-13_15h30.22.790,Digit Span Task,2021.2.3,Linux x86_64,60.08893162,,,,,,,,,,,,,,,,,,,,,
,,,,,,1,0,1,0,1,0,001,2022-04-13_15h30.22.790,Digit Span Task,2021.2.3,Linux x86_64,60.08893162,,,,,,,,,,,,,,,,,,,,,
,,,,,,2,0,2,0,1,0,001,2022-04-13_15h30.22.790,Digit Span Task,2021.2.3,Linux x86_64,60.08893162,,,,,,,,,,,,,,,,,,,,,
,,,,,,3,0,3,0,1,0,001,2022-04-13_15h30.22.790,Digit Span Task,2021.2.3,Linux x86_64,60.08893162,,,,,,,,,,,,,,,,,,,,,
,,,,,,4,0,4,0,1,0,001,2022-04-13_15h30.22.790,Digit Span Task,2021.2.3,Linux x86_64,60.08893162,,,,,,,,,,,,,,,,,,,,,
,,,,,,5,0,5,0,1,0,001,2022-04-13_15h30.22.790,Digit Span Task,2021.2.3,Linux x86_64,60.08893162,,,,,,,,,,,,,,,,,,,,,
,,,,,,6,0,6,0,1,0,001,2022-04-13_15h30.22.790,Digit Span Task,2021.2.3,Linux x86_64,60.08893162,,,,,,,,,,,,,,,,,,,,,
,,,,,,,,,,,0,001,2022-04-13_15h30.22.790,Digit Span Task,2021.2.3,Linux x86_64,60.08893162,245537,0,0.089587688,-0.38703378,1,0,0,cont_button,0,1,1,1,1,7,2544371,,,,,,
,,,,,,0,0,0,0,1,0,001,2022-04-13_15h30.22.790,Digit Span Task,2021.2.3,Linux x86_64,60.08893162,,,,,,,,,,,,,,,,,,,,,
,,,,,,1,0,1,0,1,0,001,2022-04-13_15h30.22.790,Digit Span Task,2021.2.3,Linux x86_64,60.08893162,,,,,,,,,,,,,,,,,,,,,
,,,,,,2,0,2,0,1,0,001,2022-04-13_15h30.22.790,Digit Span Task,2021.2.3,Linux x86_64,60.08893162,,,,,,,,,,,,,,,,,,,,,
,,,,,,3,0,3,0,1,0,001,2022-04-13_15h30.22.790,Digit Span Task,2021.2.3,Linux x86_64,60.08893162,,,,,,,,,,,,,,,,,,,,,
,,,,,,4,0,4,0,1,0,001,2022-04-13_15h30.22.790,Digit Span Task,2021.2.3,Linux x86_64,60.08893162,,,,,,,,,,,,,,,,,,,,,
,,,,,,5,0,5,0,1,0,001,2022-04-13_15h30.22.790,Digit Span Task,2021.2.3,Linux x86_64,60.08893162,,,,,,,,,,,,,,,,,,,,,
,,,,,,6,0,6,0,1,0,001,2022-04-13_15h30.22.790,Digit Span Task,2021.2.3,Linux x86_64,60.08893162,,,,,,,,,,,,,,,,,,,,,
,,,,,,,,,,,0,001,2022-04-13_15h30.22.790,Digit Span Task,2021.2.3,Linux x86_64,60.08893162,8875085,1,0.107472102,-0.394133409,1,0,0,cont_button,0,2,2,2,1,7,8875085,,,,,,
,,,,,,,,,,,0,001,2022-04-13_15h30.22.790,Digit Span Task,2021.2.3,Linux x86_64,60.08893162,,,,,,,,,,,,,,,,0,4,4,4,1,seven.xlsx
,,,,,,0,0,0,0,1,0,001,2022-04-13_15h30.22.790,Digit Span Task,2021.2.3,Linux x86_64,60.08893162,,,,,,,,,,,,,,,,,,,,,
,,,,,,1,0,1,0,1,0,001,2022-04-13_15h30.22.790,Digit Span Task,2021.2.3,Linux x86_64,60.08893162,,,,,,,,,,,,,,,,,,,,,
,,,,,,2,0,2,0,1,0,001,2022-04-13_15h30.22.790,Digit Span Task,2021.2.3,Linux x86_64,60.08893162,,,,,,,,,,,,,,,,,,,,,
,,,,,,3,0,3,0,1,0,001,2022-04-13_15h30.22.790,Digit Span Task,2021.2.3,Linux x86_64,60.08893162,,,,,,,,,,,,,,,,,,,,,
,,,,,,4,0,4,0,1,0,001,2022-04-13_15h30.22.790,Digit Span Task,2021.2.3,Linux x86_64,60.08893162,,,,,,,,,,,,,,,,,,,,,
,,,,,,5,0,5,0,1,0,001,2022-04-13_15h30.22.790,Digit Span Task,2021.2.3,Linux x86_64,60.08893162,,,,,,,,,,,,,,,,,,,,,
,,,,,,6,0,6,0,1,0,001,2022-04-13_15h30.22.790,Digit Span Task,2021.2.3,Linux x86_64,60.08893162,,,,,,,,,,,,,,,,,,,,,
,,,,,,7,0,7,0,1,0,001,2022-04-13_15h30.22.790,Digit Span Task,2021.2.3,Linux x86_64,60.08893162,,,,,,,,,,,,,,,,,,,,,
,,,,,,,,,,,0,001,2022-04-13_15h30.22.790,Digit Span Task,2021.2.3,Linux x86_64,60.08893162,4462890,0,0.130798896,-0.388918161,1,0,0,cont_button,0,0,0,0,1,8,46229408,,,,,,
,,,,,,0,0,0,0,1,0,001,2022-04-13_15h30.22.790,Digit Span Task,2021.2.3,Linux x86_64,60.08893162,,,,,,,,,,,,,,,,,,,,,
,,,,,,1,0,1,0,1,0,001,2022-04-13_15h30.22.790,Digit Span Task,2021.2.3,Linux x86_64,60.08893162,,,,,,,,,,,,,,,,,,,,,
,,,,,,2,0,2,0,1,0,001,2022-04-13_15h30.22.790,Digit Span Task,2021.2.3,Linux x86_64,60.08893162,,,,,,,,,,,,,,,,,,,,,
,,,,,,3,0,3,0,1,0,001,2022-04-13_15h30.22.790,Digit Span Task,2021.2.3,Linux x86_64,60.08893162,,,,,,,,,,,,,,,,,,,,,
,,,,,,4,0,4,0,1,0,001,2022-04-13_15h30.22.790,Digit Span Task,2021.2.3,Linux x86_64,60.08893162,,,,,,,,,,,,,,,,,,,,,
,,,,,,5,0,5,0,1,0,001,2022-04-13_15h30.22.790,Digit Span Task,2021.2.3,Linux x86_64,60.08893162,,,,,,,,,,,,,,,,,,,,,
,,,,,,6,0,6,0,1,0,001,2022-04-13_15h30.22.790,Digit Span Task,2021.2.3,Linux x86_64,60.08893162,,,,,,,,,,,,,,,,,,,,,
,,,,,,7,0,7,0,1,0,001,2022-04-13_15h30.22.790,Digit Span Task,2021.2.3,Linux x86_64,60.08893162,,,,,,,,,,,,,,,,,,,,,
,,,,,,,,,,,0,001,2022-04-13_15h30.22.790,Digit Span Task,2021.2.3,Linux x86_64,60.08893162,76908779,0,-0.025242329,-0.410060406,1,0,0,cont_button,0,1,1,1,1,8,70967882,,,,,,
,,,,,,0,0,0,0,1,0,001,2022-04-13_15h30.22.790,Digit Span Task,2021.2.3,Linux x86_64,60.08893162,,,,,,,,,,,,,,,,,,,,,
,,,,,,1,0,1,0,1,0,001,2022-04-13_15h30.22.790,Digit Span Task,2021.2.3,Linux x86_64,60.08893162,,,,,,,,,,,,,,,,,,,,,
,,,,,,2,0,2,0,1,0,001,2022-04-13_15h30.22.790,Digit Span Task,2021.2.3,Linux x86_64,60.08893162,,,,,,,,,,,,,,,,,,,,,
,,,,,,3,0,3,0,1,0,001,2022-04-13_15h30.22.790,Digit Span Task,2021.2.3,Linux x86_64,60.08893162,,,,,,,,,,,,,,,,,,,,,
,,,,,,4,0,4,0,1,0,001,2022-04-13_15h30.22.790,Digit Span Task,2021.2.3,Linux x86_64,60.08893162,,,,,,,,,,,,,,,,,,,,,
,,,,,,5,0,5,0,1,0,001,2022-04-13_15h30.22.790,Digit Span Task,2021.2.3,Linux x86_64,60.08893162,,,,,,,,,,,,,,,,,,,,,
,,,,,,6,0,6,0,1,0,001,2022-04-13_15h30.22.790,Digit Span Task,2021.2.3,Linux x86_64,60.08893162,,,,,,,,,,,,,,,,,,,,,
,,,,,,7,0,7,0,1,0,001,2022-04-13_15h30.22.790,Digit Span Task,2021.2.3,Linux x86_64,60.08893162,,,,,,,,,,,,,,,,,,,,,
,,,,,,,,,,,0,001,2022-04-13_15h30.22.790,Digit Span Task,2021.2.3,Linux x86_64,60.08893162,2713920,0,0.023580472,-0.431092024,1,0,0,cont_button,0,2,2,2,1,8,27139320,,,,,,
,,,,,,,,,,,0,001,2022-04-13_15h30.22.790,Digit Span Task,2021.2.3,Linux x86_64,60.08893162,,,,,,,,,,,,,,,,0,5,5,5,1,eight.xlsx
,,,,,,0,0,0,0,1,0,001,2022-04-13_15h30.22.790,Digit Span Task,2021.2.3,Linux x86_64,60.08893162,,,,,,,,,,,,,,,,,,,,,
,,,,,,1,0,1,0,1,0,001,2022-04-13_15h30.22.790,Digit Span Task,2021.2.3,Linux x86_64,60.08893162,,,,,,,,,,,,,,,,,,,,,
,,,,,,2,0,2,0,1,0,001,2022-04-13_15h30.22.790,Digit Span Task,2021.2.3,Linux x86_64,60.08893162,,,,,,,,,,,,,,,,,,,,,
,,,,,,3,0,3,0,1,0,001,2022-04-13_15h30.22.790,Digit Span Task,2021.2.3,Linux x86_64,60.08893162,,,,,,,,,,,,,,,,,,,,,
,,,,,,4,0,4,0,1,0,001,2022-04-13_15h30.22.790,Digit Span Task,2021.2.3,Linux x86_64,60.08893162,,,,,,,,,,,,,,,,,,,,,
,,,,,,5,0,5,0,1,0,001,2022-04-13_15h30.22.790,Digit Span Task,2021.2.3,Linux x86_64,60.08893162,,,,,,,,,,,,,,,,,,,,,
,,,,,,6,0,6,0,1,0,001,2022-04-13_15h30.22.790,Digit Span Task,2021.2.3,Linux x86_64,60.08893162,,,,,,,,,,,,,,,,,,,,,
,,,,,,7,0,7,0,1,0,001,2022-04-13_15h30.22.790,Digit Span Task,2021.2.3,Linux x86_64,60.08893162,,,,,,,,,,,,,,,,,,,,,
,,,,,,8,0,8,0,1,0,001,2022-04-13_15h30.22.790,Digit Span Task,2021.2.3,Linux x86_64,60.08893162,,,,,,,,,,,,,,,,,,,,,
,,,,,,,,,,,0,001,2022-04-13_15h30.22.790,Digit Span Task,2021.2.3,Linux x86_64,60.08893162,3683,0,0.091180245,-0.411334991,1,0,0,cont_button,0,0,0,0,1,9,368373442,,,,,,
,,,,,,0,0,0,0,1,0,001,2022-04-13_15h30.22.790,Digit Span Task,2021.2.3,Linux x86_64,60.08893162,,,,,,,,,,,,,,,,,,,,,
,,,,,,1,0,1,0,1,0,001,2022-04-13_15h30.22.790,Digit Span Task,2021.2.3,Linux x86_64,60.08893162,,,,,,,,,,,,,,,,,,,,,
,,,,,,2,0,2,0,1,0,001,2022-04-13_15h30.22.790,Digit Span Task,2021.2.3,Linux x86_64,60.08893162,,,,,,,,,,,,,,,,,,,,,
,,,,,,3,0,3,0,1,0,001,2022-04-13_15h30.22.790,Digit Span Task,2021.2.3,Linux x86_64,60.08893162,,,,,,,,,,,,,,,,,,,,,
,,,,,,4,0,4,0,1,0,001,2022-04-13_15h30.22.790,Digit Span Task,2021.2.3,Linux x86_64,60.08893162,,,,,,,,,,,,,,,,,,,,,
,,,,,,5,0,5,0,1,0,001,2022-04-13_15h30.22.790,Digit Span Task,2021.2.3,Linux x86_64,60.08893162,,,,,,,,,,,,,,,,,,,,,
,,,,,,6,0,6,0,1,0,001,2022-04-13_15h30.22.790,Digit Span Task,2021.2.3,Linux x86_64,60.08893162,,,,,,,,,,,,,,,,,,,,,
,,,,,,7,0,7,0,1,0,001,2022-04-13_15h30.22.790,Digit Span Task,2021.2.3,Linux x86_64,60.08893162,,,,,,,,,,,,,,,,,,,,,
,,,,,,8,0,8,0,1,0,001,2022-04-13_15h30.22.790,Digit Span Task,2021.2.3,Linux x86_64,60.08893162,,,,,,,,,,,,,,,,,,,,,
,,,,,,,,,,,0,001,2022-04-13_15h30.22.790,Digit Span Task,2021.2.3,Linux x86_64,60.08893162,57619190,0,0.075520436,-0.410327435,1,0,0,cont_button,0,1,1,1,1,9,576270919,,,,,,
,,,,,,0,0,0,0,1,0,001,2022-04-13_15h30.22.790,Digit Span Task,2021.2.3,Linux x86_64,60.08893162,,,,,,,,,,,,,,,,,,,,,
,,,,,,1,0,1,0,1,0,001,2022-04-13_15h30.22.790,Digit Span Task,2021.2.3,Linux x86_64,60.08893162,,,,,,,,,,,,,,,,,,,,,
,,,,,,2,0,2,0,1,0,001,2022-04-13_15h30.22.790,Digit Span Task,2021.2.3,Linux x86_64,60.08893162,,,,,,,,,,,,,,,,,,,,,
,,,,,,3,0,3,0,1,0,001,2022-04-13_15h30.22.790,Digit Span Task,2021.2.3,Linux x86_64,60.08893162,,,,,,,,,,,,,,,,,,,,,
,,,,,,4,0,4,0,1,0,001,2022-04-13_15h30.22.790,Digit Span Task,2021.2.3,Linux x86_64,60.08893162,,,,,,,,,,,,,,,,,,,,,
,,,,,,5,0,5,0,1,0,001,2022-04-13_15h30.22.790,Digit Span Task,2021.2.3,Linux x86_64,60.08893162,,,,,,,,,,,,,,,,,,,,,
,,,,,,6,0,6,0,1,0,001,2022-04-13_15h30.22.790,Digit Span Task,2021.2.3,Linux x86_64,60.08893162,,,,,,,,,,,,,,,,,,,,,
,,,,,,7,0,7,0,1,0,001,2022-04-13_15h30.22.790,Digit Span Task,2021.2.3,Linux x86_64,60.08893162,,,,,,,,,,,,,,,,,,,,,
,,,,,,8,0,8,0,1,0,001,2022-04-13_15h30.22.790,Digit Span Task,2021.2.3,Linux x86_64,60.08893162,,,,,,,,,,,,,,,,,,,,,
,,,,,,,,,,,0,001,2022-04-13_15h30.22.790,Digit Span Task,2021.2.3,Linux x86_64,60.08893162,68865595,0,0.022984505,-0.430982351,1,0,0,cont_button,0,2,2,2,1,9,688655957,,,,,,
,,,,,,,,,,,0,001,2022-04-13_15h30.22.790,Digit Span Task,2021.2.3,Linux x86_64,60.08893162,,,,,,,,,,,,,,,,0,6,6,6,1,nine.xlsx
,,,,,,0,0,0,0,1,0,001,2022-04-13_15h30.22.790,Digit Span Task,2021.2.3,Linux x86_64,60.08893162,,,,,,,,,,,,,,,,,,,,,
,,,,,,1,0,1,0,1,0,001,2022-04-13_15h30.22.790,Digit Span Task,2021.2.3,Linux x86_64,60.08893162,,,,,,,,,,,,,,,,,,,,,
,,,,,,2,0,2,0,1,0,001,2022-04-13_15h30.22.790,Digit Span Task,2021.2.3,Linux x86_64,60.08893162,,,,,,,,,,,,,,,,,,,,,
,,,,,,3,0,3,0,1,0,001,2022-04-13_15h30.22.790,Digit Span Task,2021.2.3,Linux x86_64,60.08893162,,,,,,,,,,,,,,,,,,,,,
,,,,,,4,0,4,0,1,0,001,2022-04-13_15h30.22.790,Digit Span Task,2021.2.3,Linux x86_64,60.08893162,,,,,,,,,,,,,,,,,,,,,
,,,,,,5,0,5,0,1,0,001,2022-04-13_15h30.22.790,Digit Span Task,2021.2.3,Linux x86_64,60.08893162,,,,,,,,,,,,,,,,,,,,,
,,,,,,6,0,6,0,1,0,001,2022-04-13_15h30.22.790,Digit Span Task,2021.2.3,Linux x86_64,60.08893162,,,,,,,,,,,,,,,,,,,,,
,,,,,,7,0,7,0,1,0,001,2022-04-13_15h30.22.790,Digit Span Task,2021.2.3,Linux x86_64,60.08893162,,,,,,,,,,,,,,,,,,,,,
,,,,,,8,0,8,0,1,0,001,2022-04-13_15h30.22.790,Digit Span Task,2021.2.3,Linux x86_64,60.08893162,,,,,,,,,,,,,,,,,,,,,
,,,,,,9,0,9,0,1,0,001,2022-04-13_15h30.22.790,Digit Span Task,2021.2.3,Linux x86_64,60.08893162,,,,,,,,,,,,,,,,,,,,,
,,,,,,,,,,,0,001,2022-04-13_15h30.22.790,Digit Span Task,2021.2.3,Linux x86_64,60.08893162,643290001,0,0.016417503,-0.42493701,1,0,0,cont_button,0,0,0,0,1,10,6432900801,,,,,,
,,,,,,0,0,0,0,1,0,001,2022-04-13_15h30.22.790,Digit Span Task,2021.2.3,Linux x86_64,60.08893162,,,,,,,,,,,,,,,,,,,,,
,,,,,,1,0,1,0,1,0,001,2022-04-13_15h30.22.790,Digit Span Task,2021.2.3,Linux x86_64,60.08893162,,,,,,,,,,,,,,,,,,,,,
,,,,,,2,0,2,0,1,0,001,2022-04-13_15h30.22.790,Digit Span Task,2021.2.3,Linux x86_64,60.08893162,,,,,,,,,,,,,,,,,,,,,
,,,,,,3,0,3,0,1,0,001,2022-04-13_15h30.22.790,Digit Span Task,2021.2.3,Linux x86_64,60.08893162,,,,,,,,,,,,,,,,,,,,,
,,,,,,4,0,4,0,1,0,001,2022-04-13_15h30.22.790,Digit Span Task,2021.2.3,Linux x86_64,60.08893162,,,,,,,,,,,,,,,,,,,,,
,,,,,,5,0,5,0,1,0,001,2022-04-13_15h30.22.790,Digit Span Task,2021.2.3,Linux x86_64,60.08893162,,,,,,,,,,,,,,,,,,,,,
,,,,,,6,0,6,0,1,0,001,2022-04-13_15h30.22.790,Digit Span Task,2021.2.3,Linux x86_64,60.08893162,,,,,,,,,,,,,,,,,,,,,
,,,,,,7,0,7,0,1,0,001,2022-04-13_15h30.22.790,Digit Span Task,2021.2.3,Linux x86_64,60.08893162,,,,,,,,,,,,,,,,,,,,,
,,,,,,8,0,8,0,1,0,001,2022-04-13_15h30.22.790,Digit Span Task,2021.2.3,Linux x86_64,60.08893162,,,,,,,,,,,,,,,,,,,,,
,,,,,,9,0,9,0,1,0,001,2022-04-13_15h30.22.790,Digit Span Task,2021.2.3,Linux x86_64,60.08893162,,,,,,,,,,,,,,,,,,,,,
,,,,,,,,,,,0,001,2022-04-13_15h30.22.790,Digit Span Task,2021.2.3,Linux x86_64,60.08893162,894,0,-0.001768033,-0.416876554,1,0,0,cont_button,0,1,1,1,1,10,8467348927,,,,,,
,,,,,,0,0,0,0,1,0,001,2022-04-13_15h30.22.790,Digit Span Task,2021.2.3,Linux x86_64,60.08893162,,,,,,,,,,,,,,,,,,,,,
,,,,,,1,0,1,0,1,0,001,2022-04-13_15h30.22.790,Digit Span Task,2021.2.3,Linux x86_64,60.08893162,,,,,,,,,,,,,,,,,,,,,
,,,,,,2,0,2,0,1,0,001,2022-04-13_15h30.22.790,Digit Span Task,2021.2.3,Linux x86_64,60.08893162,,,,,,,,,,,,,,,,,,,,,
,,,,,,3,0,3,0,1,0,001,2022-04-13_15h30.22.790,Digit Span Task,2021.2.3,Linux x86_64,60.08893162,,,,,,,,,,,,,,,,,,,,,
,,,,,,4,0,4,0,1,0,001,2022-04-13_15h30.22.790,Digit Span Task,2021.2.3,Linux x86_64,60.08893162,,,,,,,,,,,,,,,,,,,,,
,,,,,,5,0,5,0,1,0,001,2022-04-13_15h30.22.790,Digit Span Task,2021.2.3,Linux x86_64,60.08893162,,,,,,,,,,,,,,,,,,,,,
,,,,,,6,0,6,0,1,0,001,2022-04-13_15h30.22.790,Digit Span Task,2021.2.3,Linux x86_64,60.08893162,,,,,,,,,,,,,,,,,,,,,
,,,,,,7,0,7,0,1,0,001,2022-04-13_15h30.22.790,Digit Span Task,2021.2.3,Linux x86_64,60.08893162,,,,,,,,,,,,,,,,,,,,,
,,,,,,8,0,8,0,1,0,001,2022-04-13_15h30.22.790,Digit Span Task,2021.2.3,Linux x86_64,60.08893162,,,,,,,,,,,,,,,,,,,,,
,,,,,,9,0,9,0,1,0,001,2022-04-13_15h30.22.790,Digit Span Task,2021.2.3,Linux x86_64,60.08893162,,,,,,,,,,,,,,,,,,,,,
,,,,,,,,,,,0,001,2022-04-13_15h30.22.790,Digit Span Task,2021.2.3,Linux x86_64,60.08893162,41849,0,-0.044706106,-0.426952124,1,0,0,cont_button,0,2,2,2,1,10,4184946413,,,,,,
,,,,,,,,,,,0,001,2022-04-13_15h30.22.790,Digit Span Task,2021.2.3,Linux x86_64,60.08893162,,,,,,,,,,,,,,,,0,7,7,7,1,ten.xlsx
,,,,,,0,0,0,0,1,0,001,2022-04-13_15h30.22.790,Digit Span Task,2021.2.3,Linux x86_64,60.08893162,,,,,,,,,,,,,,,,,,,,,
,,,,,,1,0,1,0,1,0,001,2022-04-13_15h30.22.790,Digit Span Task,2021.2.3,Linux x86_64,60.08893162,,,,,,,,,,,,,,,,,,,,,
,,,,,,2,0,2,0,1,0,001,2022-04-13_15h30.22.790,Digit Span Task,2021.2.3,Linux x86_64,60.08893162,,,,,,,,,,,,,,,,,,,,,
,,,,,,3,0,3,0,1,0,001,2022-04-13_15h30.22.790,Digit Span Task,2021.2.3,Linux x86_64,60.08893162,,,,,,,,,,,,,,,,,,,,,
,,,,,,4,0,4,0,1,0,001,2022-04-13_15h30.22.790,Digit Span Task,2021.2.3,Linux x86_64,60.08893162,,,,,,,,,,,,,,,,,,,,,
,,,,,,5,0,5,0,1,0,001,2022-04-13_15h30.22.790,Digit Span Task,2021.2.3,Linux x86_64,60.08893162,,,,,,,,,,,,,,,,,,,,,
,,,,,,6,0,6,0,1,0,001,2022-04-13_15h30.22.790,Digit Span Task,2021.2.3,Linux x86_64,60.08893162,,,,,,,,,,,,,,,,,,,,,
,,,,,,7,0,7,0,1,0,001,2022-04-13_15h30.22.790,Digit Span Task,2021.2.3,Linux x86_64,60.08893162,,,,,,,,,,,,,,,,,,,,,
,,,,,,8,0,8,0,1,0,001,2022-04-13_15h30.22.790,Digit Span Task,2021.2.3,Linux x86_64,60.08893162,,,,,,,,,,,,,,,,,,,,,
,,,,,,9,0,9,0,1,0,001,2022-04-13_15h30.22.790,Digit Span Task,2021.2.3,Linux x86_64,60.08893162,,,,,,,,,,,,,,,,,,,,,
,,,,,,10,0,10,0,1,0,001,2022-04-13_15h30.22.790,Digit Span Task,2021.2.3,Linux x86_64,60.08893162,,,,,,,,,,,,,,,,,,,,,
,,,,,,,,,,,0,001,2022-04-13_15h30.22.790,Digit Span Task,2021.2.3,Linux x86_64,60.08893162,730,0,0.062386433,-0.427455902,1,0,0,cont_button,0,0,0,0,1,11,73290740563,,,,,,
,,,,,,0,0,0,0,1,0,001,2022-04-13_15h30.22.790,Digit Span Task,2021.2.3,Linux x86_64,60.08893162,,,,,,,,,,,,,,,,,,,,,
,,,,,,1,0,1,0,1,0,001,2022-04-13_15h30.22.790,Digit Span Task,2021.2.3,Linux x86_64,60.08893162,,,,,,,,,,,,,,,,,,,,,
,,,,,,2,0,2,0,1,0,001,2022-04-13_15h30.22.790,Digit Span Task,2021.2.3,Linux x86_64,60.08893162,,,,,,,,,,,,,,,,,,,,,
,,,,,,3,0,3,0,1,0,001,2022-04-13_15h30.22.790,Digit Span Task,2021.2.3,Linux x86_64,60.08893162,,,,,,,,,,,,,,,,,,,,,
,,,,,,4,0,4,0,1,0,001,2022-04-13_15h30.22.790,Digit Span Task,2021.2.3,Linux x86_64,60.08893162,,,,,,,,,,,,,,,,,,,,,
,,,,,,5,0,5,0,1,0,001,2022-04-13_15h30.22.790,Digit Span Task,2021.2.3,Linux x86_64,60.08893162,,,,,,,,,,,,,,,,,,,,,
,,,,,,6,0,6,0,1,0,001,2022-04-13_15h30.22.790,Digit Span Task,2021.2.3,Linux x86_64,60.08893162,,,,,,,,,,,,,,,,,,,,,
,,,,,,7,0,7,0,1,0,001,2022-04-13_15h30.22.790,Digit Span Task,2021.2.3,Linux x86_64,60.08893162,,,,,,,,,,,,,,,,,,,,,
,,,,,,8,0,8,0,1,0,001,2022-04-13_15h30.22.790,Digit Span Task,2021.2.3,Linux x86_64,60.08893162,,,,,,,,,,,,,,,,,,,,,
,,,,,,9,0,9,0,1,0,001,2022-04-13_15h30.22.790,Digit Span Task,2021.2.3,Linux x86_64,60.08893162,,,,,,,,,,,,,,,,,,,,,
,,,,,,10,0,10,0,1,0,001,2022-04-13_15h30.22.790,Digit Span Task,2021.2.3,Linux x86_64,60.08893162,,,,,,,,,,,,,,,,,,,,,
,,,,,,,,,,,0,001,2022-04-13_15h30.22.790,Digit Span Task,2021.2.3,Linux x86_64,60.08893162,789412228,0,-0.054809173,-0.41183877,1,0,0,cont_button,0,1,1,1,1,11,74948772224,,,,,,
,,,,,,0,0,0,0,1,0,001,2022-04-13_15h30.22.790,Digit Span Task,2021.2.3,Linux x86_64,60.08893162,,,,,,,,,,,,,,,,,,,,,
,,,,,,1,0,1,0,1,0,001,2022-04-13_15h30.22.790,Digit Span Task,2021.2.3,Linux x86_64,60.08893162,,,,,,,,,,,,,,,,,,,,,
,,,,,,2,0,2,0,1,0,001,2022-04-13_15h30.22.790,Digit Span Task,2021.2.3,Linux x86_64,60.08893162,,,,,,,,,,,,,,,,,,,,,
,,,,,,3,0,3,0,1,0,001,2022-04-13_15h30.22.790,Digit Span Task,2021.2.3,Linux x86_64,60.08893162,,,,,,,,,,,,,,,,,,,,,
,,,,,,4,0,4,0,1,0,001,2022-04-13_15h30.22.790,Digit Span Task,2021.2.3,Linux x86_64,60.08893162,,,,,,,,,,,,,,,,,,,,,
,,,,,,5,0,5,0,1,0,001,2022-04-13_15h30.22.790,Digit Span Task,2021.2.3,Linux x86_64,60.08893162,,,,,,,,,,,,,,,,,,,,,
,,,,,,6,0,6,0,1,0,001,2022-04-13_15h30.22.790,Digit Span Task,2021.2.3,Linux x86_64,60.08893162,,,,,,,,,,,,,,,,,,,,,
,,,,,,7,0,7,0,1,0,001,2022-04-13_15h30.22.790,Digit Span Task,2021.2.3,Linux x86_64,60.08893162,,,,,,,,,,,,,,,,,,,,,
,,,,,,8,0,8,0,1,0,001,2022-04-13_15h30.22.790,Digit Span Task,2021.2.3,Linux x86_64,60.08893162,,,,,,,,,,,,,,,,,,,,,
,,,,,,9,0,9,0,1,0,001,2022-04-13_15h30.22.790,Digit Span Task,2021.2.3,Linux x86_64,60.08893162,,,,,,,,,,,,,,,,,,,,,
,,,,,,10,0,10,0,1,0,001,2022-04-13_15h30.22.790,Digit Span Task,2021.2.3,Linux x86_64,60.08893162,,,,,,,,,,,,,,,,,,,,,
,,,,,,,,,,,0,001,2022-04-13_15h30.22.790,Digit Span Task,2021.2.3,Linux x86_64,60.08893162,7846,0,0.112901847,-0.427455902,1,0,0,cont_button,0,2,2,2,1,11,97084622072,,,,,,
,,,,,,,,,,,0,001,2022-04-13_15h30.22.790,Digit Span Task,2021.2.3,Linux x86_64,60.08893162,,,,,,,,,,,,,,,,0,8,8,8,1,eleven.xlsx
,,,,,,0,0,0,0,1,0,001,2022-04-13_15h30.22.790,Digit Span Task,2021.2.3,Linux x86_64,60.08893162,,,,,,,,,,,,,,,,,,,,,
,,,,,,1,0,1,0,1,0,001,2022-04-13_15h30.22.790,Digit Span Task,2021.2.3,Linux x86_64,60.08893162,,,,,,,,,,,,,,,,,,,,,
,,,,,,2,0,2,0,1,0,001,2022-04-13_15h30.22.790,Digit Span Task,2021.2.3,Linux x86_64,60.08893162,,,,,,,,,,,,,,,,,,,,,
,,,,,,3,0,3,0,1,0,001,2022-04-13_15h30.22.790,Digit Span Task,2021.2.3,Linux x86_64,60.08893162,,,,,,,,,,,,,,,,,,,,,
,,,,,,4,0,4,0,1,0,001,2022-04-13_15h30.22.790,Digit Span Task,2021.2.3,Linux x86_64,60.08893162,,,,,,,,,,,,,,,,,,,,,
,,,,,,5,0,5,0,1,0,001,2022-04-13_15h30.22.790,Digit Span Task,2021.2.3,Linux x86_64,60.08893162,,,,,,,,,,,,,,,,,,,,,
,,,,,,6,0,6,0,1,0,001,2022-04-13_15h30.22.790,Digit Span Task,2021.2.3,Linux x86_64,60.08893162,,,,,,,,,,,,,,,,,,,,,
,,,,,,7,0,7,0,1,0,001,2022-04-13_15h30.22.790,Digit Span Task,2021.2.3,Linux x86_64,60.08893162,,,,,,,,,,,,,,,,,,,,,
,,,,,,8,0,8,0,1,0,001,2022-04-13_15h30.22.790,Digit Span Task,2021.2.3,Linux x86_64,60.08893162,,,,,,,,,,,,,,,,,,,,,
,,,,,,9,0,9,0,1,0,001,2022-04-13_15h30.22.790,Digit Span Task,2021.2.3,Linux x86_64,60.08893162,,,,,,,,,,,,,,,,,,,,,
,,,,,,10,0,10,0,1,0,001,2022-04-13_15h30.22.790,Digit Span Task,2021.2.3,Linux x86_64,60.08893162,,,,,,,,,,,,,,,,,,,,,
,,,,,,11,0,11,0,1,0,001,2022-04-13_15h30.22.790,Digit Span Task,2021.2.3,Linux x86_64,60.08893162,,,,,,,,,,,,,,,,,,,,,
,,,,,,,,,,,0,001,2022-04-13_15h30.22.790,Digit Span Task,2021.2.3,Linux x86_64,60.08893162,681944,0,-0.029551506,-0.420906782,1,0,0,cont_button,0,0,0,0,1,12,6.81346E+11,,,,,,
,,,,,,0,0,0,0,1,0,001,2022-04-13_15h30.22.790,Digit Span Task,2021.2.3,Linux x86_64,60.08893162,,,,,,,,,,,,,,,,,,,,,
,,,,,,1,0,1,0,1,0,001,2022-04-13_15h30.22.790,Digit Span Task,2021.2.3,Linux x86_64,60.08893162,,,,,,,,,,,,,,,,,,,,,
,,,,,,2,0,2,0,1,0,001,2022-04-13_15h30.22.790,Digit Span Task,2021.2.3,Linux x86_64,60.08893162,,,,,,,,,,,,,,,,,,,,,
,,,,,,3,0,3,0,1,0,001,2022-04-13_15h30.22.790,Digit Span Task,2021.2.3,Linux x86_64,60.08893162,,,,,,,,,,,,,,,,,,,,,
,,,,,,4,0,4,0,1,0,001,2022-04-13_15h30.22.790,Digit Span Task,2021.2.3,Linux x86_64,60.08893162,,,,,,,,,,,,,,,,,,,,,
,,,,,,5,0,5,0,1,0,001,2022-04-13_15h30.22.790,Digit Span Task,2021.2.3,Linux x86_64,60.08893162,,,,,,,,,,,,,,,,,,,,,
,,,,,,6,0,6,0,1,0,001,2022-04-13_15h30.22.790,Digit Span Task,2021.2.3,Linux x86_64,60.08893162,,,,,,,,,,,,,,,,,,,,,
,,,,,,7,0,7,0,1,0,001,2022-04-13_15h30.22.790,Digit Span Task,2021.2.3,Linux x86_64,60.08893162,,,,,,,,,,,,,,,,,,,,,
,,,,,,8,0,8,0,1,0,001,2022-04-13_15h30.22.790,Digit Span Task,2021.2.3,Linux x86_64,60.08893162,,,,,,,,,,,,,,,,,,,,,
,,,,,,9,0,9,0,1,0,001,2022-04-13_15h30.22.790,Digit Span Task,2021.2.3,Linux x86_64,60.08893162,,,,,,,,,,,,,,,,,,,,,
,,,,,,10,0,10,0,1,0,001,2022-04-13_15h30.22.790,Digit Span Task,2021.2.3,Linux x86_64,60.08893162,,,,,,,,,,,,,,,,,,,,,
,,,,,,11,0,11,0,1,0,001,2022-04-13_15h30.22.790,Digit Span Task,2021.2.3,Linux x86_64,60.08893162,,,,,,,,,,,,,,,,,,,,,
