start_mouse.x,start_mouse.y,start_mouse.leftButton,start_mouse.midButton,start_mouse.rightButton,start_mouse.clicked_name,digitLoop.thisRepN,digitLoop.thisTrialN,digitLoop.thisN,digitLoop.thisIndex,digitLoop.ran,participant,session,date,expName,psychopyVersion,OS,frameRate,textbox.text,correct,mouse.x,mouse.y,mouse.leftButton,mouse.midButton,mouse.rightButton,mouse.clicked_name,trials.thisRepN,trials.thisTrialN,trials.thisN,trials.thisIndex,trials.ran,digitSpan,digits,blocks.thisRepN,blocks.thisTrialN,blocks.thisN,blocks.thisIndex,blocks.ran,condition_file
0.007164399,-0.394261758,1,0,0,cont_button,0,0,0,0,1,0,001,2022-04-14_10h28.29.661,Digit Span Task,2021.2.3,Linux x86_64,60.11783095,,,,,,,,,,,,,,,,,,,,,
,,,,,,1,0,1,0,1,0,001,2022-04-14_10h28.29.661,Digit Span Task,2021.2.3,Linux x86_64,60.11783095,,,,,,,,,,,,,,,,,,,,,
,,,,,,2,0,2,0,1,0,001,2022-04-14_10h28.29.661,Digit Span Task,2021.2.3,Linux x86_64,60.11783095,,,,,,,,,,,,,,,,,,,,,
,,,,,,,,,,,0,001,2022-04-14_10h28.29.661,Digit Span Task,2021.2.3,Linux x86_64,60.11783095,217,1,-0.00733002,-0.416471084,1,0,0,cont_button,0,0,0,0,1,3,217,,,,,,
,,,,,,0,0,0,0,1,0,001,2022-04-14_10h28.29.661,Digit Span Task,2021.2.3,Linux x86_64,60.11783095,,,,,,,,,,,,,,,,,,,,,
,,,,,,1,0,1,0,1,0,001,2022-04-14_10h28.29.661,Digit Span Task,2021.2.3,Linux x86_64,60.11783095,,,,,,,,,,,,,,,,,,,,,
,,,,,,2,0,2,0,1,0,001,2022-04-14_10h28.29.661,Digit Span Task,2021.2.3,Linux x86_64,60.11783095,,,,,,,,,,,,,,,,,,,,,
,,,,,,,,,,,0,001,2022-04-14_10h28.29.661,Digit Span Task,2021.2.3,Linux x86_64,60.11783095,217486,0,-0.084763209,-0.388827006,1,0,0,cont_button,0,1,1,1,1,3,486,,,,,,
,,,,,,0,0,0,0,1,0,001,2022-04-14_10h28.29.661,Digit Span Task,2021.2.3,Linux x86_64,60.11783095,,,,,,,,,,,,,,,,,,,,,
,,,,,,1,0,1,0,1,0,001,2022-04-14_10h28.29.661,Digit Span Task,2021.2.3,Linux x86_64,60.11783095,,,,,,,,,,,,,,,,,,,,,
,,,,,,2,0,2,0,1,0,001,2022-04-14_10h28.29.661,Digit Span Task,2021.2.3,Linux x86_64,60.11783095,,,,,,,,,,,,,,,,,,,,,
,,,,,,,,,,,0,001,2022-04-14_10h28.29.661,Digit Span Task,2021.2.3,Linux x86_64,60.11783095,760,1,-0.075118621,-0.400334676,1,0,0,cont_button,0,2,2,2,1,3,760,,,,,,
,,,,,,,,,,,0,001,2022-04-14_10h28.29.661,Digit Span Task,2021.2.3,Linux x86_64,60.11783095,,,,,,,,,,,,,,,,0,0,0,0,1,three.xlsx
,,,,,,0,0,0,0,1,0,001,2022-04-14_10h28.29.661,Digit Span Task,2021.2.3,Linux x86_64,60.11783095,,,,,,,,,,,,,,,,,,,,,
,,,,,,1,0,1,0,1,0,001,2022-04-14_10h28.29.661,Digit Span Task,2021.2.3,Linux x86_64,60.11783095,,,,,,,,,,,,,,,,,,,,,
,,,,,,2,0,2,0,1,0,001,2022-04-14_10h28.29.661,Digit Span Task,2021.2.3,Linux x86_64,60.11783095,,,,,,,,,,,,,,,,,,,,,
,,,,,,3,0,3,0,1,0,001,2022-04-14_10h28.29.661,Digit Span Task,2021.2.3,Linux x86_64,60.11783095,,,,,,,,,,,,,,,,,,,,,
,,,,,,,,,,,0,001,2022-04-14_10h28.29.661,Digit Span Task,2021.2.3,Linux x86_64,60.11783095,3141,1,-0.037299871,-0.38972942,1,0,0,cont_button,0,0,0,0,1,4,3141,,,,,,
,,,,,,0,0,0,0,1,0,001,2022-04-14_10h28.29.661,Digit Span Task,2021.2.3,Linux x86_64,60.11783095,,,,,,,,,,,,,,,,,,,,,
,,,,,,1,0,1,0,1,0,001,2022-04-14_10h28.29.661,Digit Span Task,2021.2.3,Linux x86_64,60.11783095,,,,,,,,,,,,,,,,,,,,,
,,,,,,2,0,2,0,1,0,001,2022-04-14_10h28.29.661,Digit Span Task,2021.2.3,Linux x86_64,60.11783095,,,,,,,,,,,,,,,,,,,,,
,,,,,,3,0,3,0,1,0,001,2022-04-14_10h28.29.661,Digit Span Task,2021.2.3,Linux x86_64,60.11783095,,,,,,,,,,,,,,,,,,,,,
,,,,,,,,,,,0,001,2022-04-14_10h28.29.661,Digit Span Task,2021.2.3,Linux x86_64,60.11783095,6351,1,-0.047495524,-0.411614498,1,0,0,cont_button,0,1,1,1,1,4,6351,,,,,,
,,,,,,0,0,0,0,1,0,001,2022-04-14_10h28.29.661,Digit Span Task,2021.2.3,Linux x86_64,60.11783095,,,,,,,,,,,,,,,,,,,,,
,,,,,,1,0,1,0,1,0,001,2022-04-14_10h28.29.661,Digit Span Task,2021.2.3,Linux x86_64,60.11783095,,,,,,,,,,,,,,,,,,,,,
,,,,,,2,0,2,0,1,0,001,2022-04-14_10h28.29.661,Digit Span Task,2021.2.3,Linux x86_64,60.11783095,,,,,,,,,,,,,,,,,,,,,
,,,,,,3,0,3,0,1,0,001,2022-04-14_10h28.29.661,Digit Span Task,2021.2.3,Linux x86_64,60.11783095,,,,,,,,,,,,,,,,,,,,,
,,,,,,,,,,,0,001,2022-04-14_10h28.29.661,Digit Span Task,2021.2.3,Linux x86_64,60.11783095,2391,1,-0.031710625,-0.427679062,1,0,0,cont_button,0,2,2,2,1,4,2391,,,,,,
,,,,,,,,,,,0,001,2022-04-14_10h28.29.661,Digit Span Task,2021.2.3,Linux x86_64,60.11783095,,,,,,,,,,,,,,,,0,1,1,1,1,four.xlsx
,,,,,,0,0,0,0,1,0,001,2022-04-14_10h28.29.661,Digit Span Task,2021.2.3,Linux x86_64,60.11783095,,,,,,,,,,,,,,,,,,,,,
,,,,,,1,0,1,0,1,0,001,2022-04-14_10h28.29.661,Digit Span Task,2021.2.3,Linux x86_64,60.11783095,,,,,,,,,,,,,,,,,,,,,
,,,,,,2,0,2,0,1,0,001,2022-04-14_10h28.29.661,Digit Span Task,2021.2.3,Linux x86_64,60.11783095,,,,,,,,,,,,,,,,,,,,,
,,,,,,3,0,3,0,1,0,001,2022-04-14_10h28.29.661,Digit Span Task,2021.2.3,Linux x86_64,60.11783095,,,,,,,,,,,,,,,,,,,,,
,,,,,,4,0,4,0,1,0,001,2022-04-14_10h28.29.661,Digit Span Task,2021.2.3,Linux x86_64,60.11783095,,,,,,,,,,,,,,,,,,,,,
,,,,,,,,,,,0,001,2022-04-14_10h28.29.661,Digit Span Task,2021.2.3,Linux x86_64,60.11783095,14932,1,-0.051977078,-0.416857243,1,0,0,cont_button,0,0,0,0,1,5,14932,,,,,,
,,,,,,0,0,0,0,1,0,001,2022-04-14_10h28.29.661,Digit Span Task,2021.2.3,Linux x86_64,60.11783095,,,,,,,,,,,,,,,,,,,,,
,,,,,,1,0,1,0,1,0,001,2022-04-14_10h28.29.661,Digit Span Task,2021.2.3,Linux x86_64,60.11783095,,,,,,,,,,,,,,,,,,,,,
,,,,,,2,0,2,0,1,0,001,2022-04-14_10h28.29.661,Digit Span Task,2021.2.3,Linux x86_64,60.11783095,,,,,,,,,,,,,,,,,,,,,
,,,,,,3,0,3,0,1,0,001,2022-04-14_10h28.29.661,Digit Span Task,2021.2.3,Linux x86_64,60.11783095,,,,,,,,,,,,,,,,,,,,,
,,,,,,4,0,4,0,1,0,001,2022-04-14_10h28.29.661,Digit Span Task,2021.2.3,Linux x86_64,60.11783095,,,,,,,,,,,,,,,,,,,,,
,,,,,,,,,,,0,001,2022-04-14_10h28.29.661,Digit Span Task,2021.2.3,Linux x86_64,60.11783095,10646,1,-0.061230262,-0.404907624,1,0,0,cont_button,0,1,1,1,1,5,10646,,,,,,
,,,,,,0,0,0,0,1,0,001,2022-04-14_10h28.29.661,Digit Span Task,2021.2.3,Linux x86_64,60.11783095,,,,,,,,,,,,,,,,,,,,,
,,,,,,1,0,1,0,1,0,001,2022-04-14_10h28.29.661,Digit Span Task,2021.2.3,Linux x86_64,60.11783095,,,,,,,,,,,,,,,,,,,,,
,,,,,,2,0,2,0,1,0,001,2022-04-14_10h28.29.661,Digit Span Task,2021.2.3,Linux x86_64,60.11783095,,,,,,,,,,,,,,,,,,,,,
,,,,,,3,0,3,0,1,0,001,2022-04-14_10h28.29.661,Digit Span Task,2021.2.3,Linux x86_64,60.11783095,,,,,,,,,,,,,,,,,,,,,
,,,,,,4,0,4,0,1,0,001,2022-04-14_10h28.29.661,Digit Span Task,2021.2.3,Linux x86_64,60.11783095,,,,,,,,,,,,,,,,,,,,,
,,,,,,,,,,,0,001,2022-04-14_10h28.29.661,Digit Span Task,2021.2.3,Linux x86_64,60.11783095,74832,1,-0.08156244,-0.41588076,1,0,0,cont_button,0,2,2,2,1,5,74832,,,,,,
,,,,,,,,,,,0,001,2022-04-14_10h28.29.661,Digit Span Task,2021.2.3,Linux x86_64,60.11783095,,,,,,,,,,,,,,,,0,2,2,2,1,five.xlsx
,,,,,,0,0,0,0,1,0,001,2022-04-14_10h28.29.661,Digit Span Task,2021.2.3,Linux x86_64,60.11783095,,,,,,,,,,,,,,,,,,,,,
,,,,,,1,0,1,0,1,0,001,2022-04-14_10h28.29.661,Digit Span Task,2021.2.3,Linux x86_64,60.11783095,,,,,,,,,,,,,,,,,,,,,
,,,,,,2,0,2,0,1,0,001,2022-04-14_10h28.29.661,Digit Span Task,2021.2.3,Linux x86_64,60.11783095,,,,,,,,,,,,,,,,,,,,,
,,,,,,3,0,3,0,1,0,001,2022-04-14_10h28.29.661,Digit Span Task,2021.2.3,Linux x86_64,60.11783095,,,,,,,,,,,,,,,,,,,,,
,,,,,,4,0,4,0,1,0,001,2022-04-14_10h28.29.661,Digit Span Task,2021.2.3,Linux x86_64,60.11783095,,,,,,,,,,,,,,,,,,,,,
,,,,,,5,0,5,0,1,0,001,2022-04-14_10h28.29.661,Digit Span Task,2021.2.3,Linux x86_64,60.11783095,,,,,,,,,,,,,,,,,,,,,
,,,,,,,,,,,0,001,2022-04-14_10h28.29.661,Digit Span Task,2021.2.3,Linux x86_64,60.11783095,934648,1,-0.025120099,-0.399016301,1,0,0,cont_button,0,0,0,0,1,6,934648,,,,,,
,,,,,,0,0,0,0,1,0,001,2022-04-14_10h28.29.661,Digit Span Task,2021.2.3,Linux x86_64,60.11783095,,,,,,,,,,,,,,,,,,,,,
,,,,,,1,0,1,0,1,0,001,2022-04-14_10h28.29.661,Digit Span Task,2021.2.3,Linux x86_64,60.11783095,,,,,,,,,,,,,,,,,,,,,
,,,,,,2,0,2,0,1,0,001,2022-04-14_10h28.29.661,Digit Span Task,2021.2.3,Linux x86_64,60.11783095,,,,,,,,,,,,,,,,,,,,,
,,,,,,3,0,3,0,1,0,001,2022-04-14_10h28.29.661,Digit Span Task,2021.2.3,Linux x86_64,60.11783095,,,,,,,,,,,,,,,,,,,,,
,,,,,,4,0,4,0,1,0,001,2022-04-14_10h28.29.661,Digit Span Task,2021.2.3,Linux x86_64,60.11783095,,,,,,,,,,,,,,,,,,,,,
,,,,,,5,0,5,0,1,0,001,2022-04-14_10h28.29.661,Digit Span Task,2021.2.3,Linux x86_64,60.11783095,,,,,,,,,,,,,,,,,,,,,
,,,,,,,,,,,0,001,2022-04-14_10h28.29.661,Digit Span Task,2021.2.3,Linux x86_64,60.11783095,179390,1,-0.052898566,-0.405033191,1,0,0,cont_button,0,1,1,1,1,6,179390,,,,,,
,,,,,,0,0,0,0,1,0,001,2022-04-14_10h28.29.661,Digit Span Task,2021.2.3,Linux x86_64,60.11783095,,,,,,,,,,,,,,,,,,,,,
,,,,,,1,0,1,0,1,0,001,2022-04-14_10h28.29.661,Digit Span Task,2021.2.3,Linux x86_64,60.11783095,,,,,,,,,,,,,,,,,,,,,
,,,,,,2,0,2,0,1,0,001,2022-04-14_10h28.29.661,Digit Span Task,2021.2.3,Linux x86_64,60.11783095,,,,,,,,,,,,,,,,,,,,,
,,,,,,3,0,3,0,1,0,001,2022-04-14_10h28.29.661,Digit Span Task,2021.2.3,Linux x86_64,60.11783095,,,,,,,,,,,,,,,,,,,,,
,,,,,,4,0,4,0,1,0,001,2022-04-14_10h28.29.661,Digit Span Task,2021.2.3,Linux x86_64,60.11783095,,,,,,,,,,,,,,,,,,,,,
,,,,,,5,0,5,0,1,0,001,2022-04-14_10h28.29.661,Digit Span Task,2021.2.3,Linux x86_64,60.11783095,,,,,,,,,,,,,,,,,,,,,
,,,,,,,,,,,0,001,2022-04-14_10h28.29.661,Digit Span Task,2021.2.3,Linux x86_64,60.11783095,408288,1,-0.113009373,-0.382155418,1,0,0,cont_button,0,2,2,2,1,6,408288,,,,,,
,,,,,,,,,,,0,001,2022-04-14_10h28.29.661,Digit Span Task,2021.2.3,Linux x86_64,60.11783095,,,,,,,,,,,,,,,,0,3,3,3,1,six.xlsx
,,,,,,0,0,0,0,1,0,001,2022-04-14_10h28.29.661,Digit Span Task,2021.2.3,Linux x86_64,60.11783095,,,,,,,,,,,,,,,,,,,,,
,,,,,,1,0,1,0,1,0,001,2022-04-14_10h28.29.661,Digit Span Task,2021.2.3,Linux x86_64,60.11783095,,,,,,,,,,,,,,,,,,,,,
,,,,,,2,0,2,0,1,0,001,2022-04-14_10h28.29.661,Digit Span Task,2021.2.3,Linux x86_64,60.11783095,,,,,,,,,,,,,,,,,,,,,
,,,,,,3,0,3,0,1,0,001,2022-04-14_10h28.29.661,Digit Span Task,2021.2.3,Linux x86_64,60.11783095,,,,,,,,,,,,,,,,,,,,,
,,,,,,4,0,4,0,1,0,001,2022-04-14_10h28.29.661,Digit Span Task,2021.2.3,Linux x86_64,60.11783095,,,,,,,,,,,,,,,,,,,,,
,,,,,,5,0,5,0,1,0,001,2022-04-14_10h28.29.661,Digit Span Task,2021.2.3,Linux x86_64,60.11783095,,,,,,,,,,,,,,,,,,,,,
,,,,,,6,0,6,0,1,0,001,2022-04-14_10h28.29.661,Digit Span Task,2021.2.3,Linux x86_64,60.11783095,,,,,,,,,,,,,,,,,,,,,
,,,,,,,,,,,0,001,2022-04-14_10h28.29.661,Digit Span Task,2021.2.3,Linux x86_64,60.11783095,4498237,1,-0.102870146,-0.419068654,1,0,0,cont_button,0,0,0,0,1,7,4498237,,,,,,
,,,,,,0,0,0,0,1,0,001,2022-04-14_10h28.29.661,Digit Span Task,2021.2.3,Linux x86_64,60.11783095,,,,,,,,,,,,,,,,,,,,,
,,,,,,1,0,1,0,1,0,001,2022-04-14_10h28.29.661,Digit Span Task,2021.2.3,Linux x86_64,60.11783095,,,,,,,,,,,,,,,,,,,,,
,,,,,,2,0,2,0,1,0,001,2022-04-14_10h28.29.661,Digit Span Task,2021.2.3,Linux x86_64,60.11783095,,,,,,,,,,,,,,,,,,,,,
,,,,,,3,0,3,0,1,0,001,2022-04-14_10h28.29.661,Digit Span Task,2021.2.3,Linux x86_64,60.11783095,,,,,,,,,,,,,,,,,,,,,
,,,,,,4,0,4,0,1,0,001,2022-04-14_10h28.29.661,Digit Span Task,2021.2.3,Linux x86_64,60.11783095,,,,,,,,,,,,,,,,,,,,,
,,,,,,5,0,5,0,1,0,001,2022-04-14_10h28.29.661,Digit Span Task,2021.2.3,Linux x86_64,60.11783095,,,,,,,,,,,,,,,,,,,,,
,,,,,,6,0,6,0,1,0,001,2022-04-14_10h28.29.661,Digit Span Task,2021.2.3,Linux x86_64,60.11783095,,,,,,,,,,,,,,,,,,,,,
,,,,,,,,,,,0,001,2022-04-14_10h28.29.661,Digit Span Task,2021.2.3,Linux x86_64,60.11783095,2554371,0,-0.104447126,-0.409642776,1,0,0,cont_button,0,1,1,1,1,7,2544371,,,,,,
,,,,,,0,0,0,0,1,0,001,2022-04-14_10h28.29.661,Digit Span Task,2021.2.3,Linux x86_64,60.11783095,,,,,,,,,,,,,,,,,,,,,
,,,,,,1,0,1,0,1,0,001,2022-04-14_10h28.29.661,Digit Span Task,2021.2.3,Linux x86_64,60.11783095,,,,,,,,,,,,,,,,,,,,,
,,,,,,2,0,2,0,1,0,001,2022-04-14_10h28.29.661,Digit Span Task,2021.2.3,Linux x86_64,60.11783095,,,,,,,,,,,,,,,,,,,,,
,,,,,,3,0,3,0,1,0,001,2022-04-14_10h28.29.661,Digit Span Task,2021.2.3,Linux x86_64,60.11783095,,,,,,,,,,,,,,,,,,,,,
,,,,,,4,0,4,0,1,0,001,2022-04-14_10h28.29.661,Digit Span Task,2021.2.3,Linux x86_64,60.11783095,,,,,,,,,,,,,,,,,,,,,
,,,,,,5,0,5,0,1,0,001,2022-04-14_10h28.29.661,Digit Span Task,2021.2.3,Linux x86_64,60.11783095,,,,,,,,,,,,,,,,,,,,,
,,,,,,6,0,6,0,1,0,001,2022-04-14_10h28.29.661,Digit Span Task,2021.2.3,Linux x86_64,60.11783095,,,,,,,,,,,,,,,,,,,,,
,,,,,,,,,,,0,001,2022-04-14_10h28.29.661,Digit Span Task,2021.2.3,Linux x86_64,60.11783095,8857050,0,-0.00391221,-0.383067449,1,0,0,cont_button,0,2,2,2,1,7,8875085,,,,,,
,,,,,,,,,,,0,001,2022-04-14_10h28.29.661,Digit Span Task,2021.2.3,Linux x86_64,60.11783095,,,,,,,,,,,,,,,,0,4,4,4,1,seven.xlsx
,,,,,,0,0,0,0,1,0,001,2022-04-14_10h28.29.661,Digit Span Task,2021.2.3,Linux x86_64,60.11783095,,,,,,,,,,,,,,,,,,,,,
,,,,,,1,0,1,0,1,0,001,2022-04-14_10h28.29.661,Digit Span Task,2021.2.3,Linux x86_64,60.11783095,,,,,,,,,,,,,,,,,,,,,
,,,,,,2,0,2,0,1,0,001,2022-04-14_10h28.29.661,Digit Span Task,2021.2.3,Linux x86_64,60.11783095,,,,,,,,,,,,,,,,,,,,,
,,,,,,3,0,3,0,1,0,001,2022-04-14_10h28.29.661,Digit Span Task,2021.2.3,Linux x86_64,60.11783095,,,,,,,,,,,,,,,,,,,,,
,,,,,,4,0,4,0,1,0,001,2022-04-14_10h28.29.661,Digit Span Task,2021.2.3,Linux x86_64,60.11783095,,,,,,,,,,,,,,,,,,,,,
,,,,,,5,0,5,0,1,0,001,2022-04-14_10h28.29.661,Digit Span Task,2021.2.3,Linux x86_64,60.11783095,,,,,,,,,,,,,,,,,,,,,
,,,,,,6,0,6,0,1,0,001,2022-04-14_10h28.29.661,Digit Span Task,2021.2.3,Linux x86_64,60.11783095,,,,,,,,,,,,,,,,,,,,,
,,,,,,7,0,7,0,1,0,001,2022-04-14_10h28.29.661,Digit Span Task,2021.2.3,Linux x86_64,60.11783095,,,,,,,,,,,,,,,,,,,,,
,,,,,,,,,,,0,001,2022-04-14_10h28.29.661,Digit Span Task,2021.2.3,Linux x86_64,60.11783095,4622940,0,0.021863143,-0.410607417,1,0,0,cont_button,0,0,0,0,1,8,46229408,,,,,,
,,,,,,0,0,0,0,1,0,001,2022-04-14_10h28.29.661,Digit Span Task,2021.2.3,Linux x86_64,60.11783095,,,,,,,,,,,,,,,,,,,,,
,,,,,,1,0,1,0,1,0,001,2022-04-14_10h28.29.661,Digit Span Task,2021.2.3,Linux x86_64,60.11783095,,,,,,,,,,,,,,,,,,,,,
,,,,,,2,0,2,0,1,0,001,2022-04-14_10h28.29.661,Digit Span Task,2021.2.3,Linux x86_64,60.11783095,,,,,,,,,,,,,,,,,,,,,
,,,,,,3,0,3,0,1,0,001,2022-04-14_10h28.29.661,Digit Span Task,2021.2.3,Linux x86_64,60.11783095,,,,,,,,,,,,,,,,,,,,,
,,,,,,4,0,4,0,1,0,001,2022-04-14_10h28.29.661,Digit Span Task,2021.2.3,Linux x86_64,60.11783095,,,,,,,,,,,,,,,,,,,,,
,,,,,,5,0,5,0,1,0,001,2022-04-14_10h28.29.661,Digit Span Task,2021.2.3,Linux x86_64,60.11783095,,,,,,,,,,,,,,,,,,,,,
,,,,,,6,0,6,0,1,0,001,2022-04-14_10h28.29.661,Digit Span Task,2021.2.3,Linux x86_64,60.11783095,,,,,,,,,,,,,,,,,,,,,
,,,,,,7,0,7,0,1,0,001,2022-04-14_10h28.29.661,Digit Span Task,2021.2.3,Linux x86_64,60.11783095,,,,,,,,,,,,,,,,,,,,,
,,,,,,,,,,,0,001,2022-04-14_10h28.29.661,Digit Span Task,2021.2.3,Linux x86_64,60.11783095,709672,0,0.000798623,-0.384708325,1,0,0,cont_button,0,1,1,1,1,8,70967882,,,,,,
,,,,,,0,0,0,0,1,0,001,2022-04-14_10h28.29.661,Digit Span Task,2021.2.3,Linux x86_64,60.11783095,,,,,,,,,,,,,,,,,,,,,
,,,,,,1,0,1,0,1,0,001,2022-04-14_10h28.29.661,Digit Span Task,2021.2.3,Linux x86_64,60.11783095,,,,,,,,,,,,,,,,,,,,,
,,,,,,2,0,2,0,1,0,001,2022-04-14_10h28.29.661,Digit Span Task,2021.2.3,Linux x86_64,60.11783095,,,,,,,,,,,,,,,,,,,,,
,,,,,,3,0,3,0,1,0,001,2022-04-14_10h28.29.661,Digit Span Task,2021.2.3,Linux x86_64,60.11783095,,,,,,,,,,,,,,,,,,,,,
,,,,,,4,0,4,0,1,0,001,2022-04-14_10h28.29.661,Digit Span Task,2021.2.3,Linux x86_64,60.11783095,,,,,,,,,,,,,,,,,,,,,
,,,,,,5,0,5,0,1,0,001,2022-04-14_10h28.29.661,Digit Span Task,2021.2.3,Linux x86_64,60.11783095,,,,,,,,,,,,,,,,,,,,,
,,,,,,6,0,6,0,1,0,001,2022-04-14_10h28.29.661,Digit Span Task,2021.2.3,Linux x86_64,60.11783095,,,,,,,,,,,,,,,,,,,,,
,,,,,,7,0,7,0,1,0,001,2022-04-14_10h28.29.661,Digit Span Task,2021.2.3,Linux x86_64,60.11783095,,,,,,,,,,,,,,,,,,,,,
,,,,,,,,,,,0,001,2022-04-14_10h28.29.661,Digit Span Task,2021.2.3,Linux x86_64,60.11783095,2713930,0,-0.006687005,-0.408582608,1,0,0,cont_button,0,2,2,2,1,8,27139320,,,,,,
,,,,,,,,,,,0,001,2022-04-14_10h28.29.661,Digit Span Task,2021.2.3,Linux x86_64,60.11783095,,,,,,,,,,,,,,,,0,5,5,5,1,eight.xlsx
,,,,,,0,0,0,0,1,0,001,2022-04-14_10h28.29.661,Digit Span Task,2021.2.3,Linux x86_64,60.11783095,,,,,,,,,,,,,,,,,,,,,
,,,,,,1,0,1,0,1,0,001,2022-04-14_10h28.29.661,Digit Span Task,2021.2.3,Linux x86_64,60.11783095,,,,,,,,,,,,,,,,,,,,,
,,,,,,2,0,2,0,1,0,001,2022-04-14_10h28.29.661,Digit Span Task,2021.2.3,Linux x86_64,60.11783095,,,,,,,,,,,,,,,,,,,,,
,,,,,,3,0,3,0,1,0,001,2022-04-14_10h28.29.661,Digit Span Task,2021.2.3,Linux x86_64,60.11783095,,,,,,,,,,,,,,,,,,,,,
,,,,,,4,0,4,0,1,0,001,2022-04-14_10h28.29.661,Digit Span Task,2021.2.3,Linux x86_64,60.11783095,,,,,,,,,,,,,,,,,,,,,
,,,,,,5,0,5,0,1,0,001,2022-04-14_10h28.29.661,Digit Span Task,2021.2.3,Linux x86_64,60.11783095,,,,,,,,,,,,,,,,,,,,,
,,,,,,6,0,6,0,1,0,001,2022-04-14_10h28.29.661,Digit Span Task,2021.2.3,Linux x86_64,60.11783095,,,,,,,,,,,,,,,,,,,,,
,,,,,,7,0,7,0,1,0,001,2022-04-14_10h28.29.661,Digit Span Task,2021.2.3,Linux x86_64,60.11783095,,,,,,,,,,,,,,,,,,,,,
,,,,,,8,0,8,0,1,0,001,2022-04-14_10h28.29.661,Digit Span Task,2021.2.3,Linux x86_64,60.11783095,,,,,,,,,,,,,,,,,,,,,
,,,,,,,,,,,0,001,2022-04-14_10h28.29.661,Digit Span Task,2021.2.3,Linux x86_64,60.11783095,36837342,0,-0.048530976,-0.400785128,1,0,0,cont_button,0,0,0,0,1,9,368373442,,,,,,
,,,,,,0,0,0,0,1,0,001,2022-04-14_10h28.29.661,Digit Span Task,2021.2.3,Linux x86_64,60.11783095,,,,,,,,,,,,,,,,,,,,,
,,,,,,1,0,1,0,1,0,001,2022-04-14_10h28.29.661,Digit Span Task,2021.2.3,Linux x86_64,60.11783095,,,,,,,,,,,,,,,,,,,,,
,,,,,,2,0,2,0,1,0,001,2022-04-14_10h28.29.661,Digit Span Task,2021.2.3,Linux x86_64,60.11783095,,,,,,,,,,,,,,,,,,,,,
,,,,,,3,0,3,0,1,0,001,2022-04-14_10h28.29.661,Digit Span Task,2021.2.3,Linux x86_64,60.11783095,,,,,,,,,,,,,,,,,,,,,
,,,,,,4,0,4,0,1,0,001,2022-04-14_10h28.29.661,Digit Span Task,2021.2.3,Linux x86_64,60.11783095,,,,,,,,,,,,,,,,,,,,,
,,,,,,5,0,5,0,1,0,001,2022-04-14_10h28.29.661,Digit Span Task,2021.2.3,Linux x86_64,60.11783095,,,,,,,,,,,,,,,,,,,,,
,,,,,,6,0,6,0,1,0,001,2022-04-14_10h28.29.661,Digit Span Task,2021.2.3,Linux x86_64,60.11783095,,,,,,,,,,,,,,,,,,,,,
,,,,,,7,0,7,0,1,0,001,2022-04-14_10h28.29.661,Digit Span Task,2021.2.3,Linux x86_64,60.11783095,,,,,,,,,,,,,,,,,,,,,
,,,,,,8,0,8,0,1,0,001,2022-04-14_10h28.29.661,Digit Span Task,2021.2.3,Linux x86_64,60.11783095,,,,,,,,,,,,,,,,,,,,,
,,,,,,,,,,,0,001,2022-04-14_10h28.29.661,Digit Span Task,2021.2.3,Linux x86_64,60.11783095,"5676921
",0,0.038975557,-0.392608404,1,0,0,cont_button,0,1,1,1,1,9,576270919,,,,,,
,,,,,,0,0,0,0,1,0,001,2022-04-14_10h28.29.661,Digit Span Task,2021.2.3,Linux x86_64,60.11783095,,,,,,,,,,,,,,,,,,,,,
,,,,,,1,0,1,0,1,0,001,2022-04-14_10h28.29.661,Digit Span Task,2021.2.3,Linux x86_64,60.11783095,,,,,,,,,,,,,,,,,,,,,
,,,,,,2,0,2,0,1,0,001,2022-04-14_10h28.29.661,Digit Span Task,2021.2.3,Linux x86_64,60.11783095,,,,,,,,,,,,,,,,,,,,,
,,,,,,3,0,3,0,1,0,001,2022-04-14_10h28.29.661,Digit Span Task,2021.2.3,Linux x86_64,60.11783095,,,,,,,,,,,,,,,,,,,,,
,,,,,,4,0,4,0,1,0,001,2022-04-14_10h28.29.661,Digit Span Task,2021.2.3,Linux x86_64,60.11783095,,,,,,,,,,,,,,,,,,,,,
,,,,,,5,0,5,0,1,0,001,2022-04-14_10h28.29.661,Digit Span Task,2021.2.3,Linux x86_64,60.11783095,,,,,,,,,,,,,,,,,,,,,
,,,,,,6,0,6,0,1,0,001,2022-04-14_10h28.29.661,Digit Span Task,2021.2.3,Linux x86_64,60.11783095,,,,,,,,,,,,,,,,,,,,,
,,,,,,7,0,7,0,1,0,001,2022-04-14_10h28.29.661,Digit Span Task,2021.2.3,Linux x86_64,60.11783095,,,,,,,,,,,,,,,,,,,,,
,,,,,,8,0,8,0,1,0,001,2022-04-14_10h28.29.661,Digit Span Task,2021.2.3,Linux x86_64,60.11783095,,,,,,,,,,,,,,,,,,,,,
,,,,,,,,,,,0,001,2022-04-14_10h28.29.661,Digit Span Task,2021.2.3,Linux x86_64,60.11783095,6556789,0,-0.052919229,-0.414604187,1,0,0,cont_button,0,2,2,2,1,9,688655957,,,,,,
,,,,,,,,,,,0,001,2022-04-14_10h28.29.661,Digit Span Task,2021.2.3,Linux x86_64,60.11783095,,,,,,,,,,,,,,,,0,6,6,6,1,nine.xlsx
,,,,,,0,0,0,0,1,0,001,2022-04-14_10h28.29.661,Digit Span Task,2021.2.3,Linux x86_64,60.11783095,,,,,,,,,,,,,,,,,,,,,
,,,,,,1,0,1,0,1,0,001,2022-04-14_10h28.29.661,Digit Span Task,2021.2.3,Linux x86_64,60.11783095,,,,,,,,,,,,,,,,,,,,,
,,,,,,2,0,2,0,1,0,001,2022-04-14_10h28.29.661,Digit Span Task,2021.2.3,Linux x86_64,60.11783095,,,,,,,,,,,,,,,,,,,,,
,,,,,,3,0,3,0,1,0,001,2022-04-14_10h28.29.661,Digit Span Task,2021.2.3,Linux x86_64,60.11783095,,,,,,,,,,,,,,,,,,,,,
,,,,,,4,0,4,0,1,0,001,2022-04-14_10h28.29.661,Digit Span Task,2021.2.3,Linux x86_64,60.11783095,,,,,,,,,,,,,,,,,,,,,
,,,,,,5,0,5,0,1,0,001,2022-04-14_10h28.29.661,Digit Span Task,2021.2.3,Linux x86_64,60.11783095,,,,,,,,,,,,,,,,,,,,,
,,,,,,6,0,6,0,1,0,001,2022-04-14_10h28.29.661,Digit Span Task,2021.2.3,Linux x86_64,60.11783095,,,,,,,,,,,,,,,,,,,,,
,,,,,,7,0,7,0,1,0,001,2022-04-14_10h28.29.661,Digit Span Task,2021.2.3,Linux x86_64,60.11783095,,,,,,,,,,,,,,,,,,,,,
,,,,,,8,0,8,0,1,0,001,2022-04-14_10h28.29.661,Digit Span Task,2021.2.3,Linux x86_64,60.11783095,,,,,,,,,,,,,,,,,,,,,
,,,,,,9,0,9,0,1,0,001,2022-04-14_10h28.29.661,Digit Span Task,2021.2.3,Linux x86_64,60.11783095,,,,,,,,,,,,,,,,,,,,,
,,,,,,,,,,,0,001,2022-04-14_10h28.29.661,Digit Span Task,2021.2.3,Linux x86_64,60.11783095,6432980010,0,0.043039004,-0.420796951,1,0,0,cont_button,0,0,0,0,1,10,6432900801,,,,,,
,,,,,,0,0,0,0,1,0,001,2022-04-14_10h28.29.661,Digit Span Task,2021.2.3,Linux x86_64,60.11783095,,,,,,,,,,,,,,,,,,,,,
,,,,,,1,0,1,0,1,0,001,2022-04-14_10h28.29.661,Digit Span Task,2021.2.3,Linux x86_64,60.11783095,,,,,,,,,,,,,,,,,,,,,
,,,,,,2,0,2,0,1,0,001,2022-04-14_10h28.29.661,Digit Span Task,2021.2.3,Linux x86_64,60.11783095,,,,,,,,,,,,,,,,,,,,,
,,,,,,3,0,3,0,1,0,001,2022-04-14_10h28.29.661,Digit Span Task,2021.2.3,Linux x86_64,60.11783095,,,,,,,,,,,,,,,,,,,,,
,,,,,,4,0,4,0,1,0,001,2022-04-14_10h28.29.661,Digit Span Task,2021.2.3,Linux x86_64,60.11783095,,,,,,,,,,,,,,,,,,,,,
,,,,,,5,0,5,0,1,0,001,2022-04-14_10h28.29.661,Digit Span Task,2021.2.3,Linux x86_64,60.11783095,,,,,,,,,,,,,,,,,,,,,
,,,,,,6,0,6,0,1,0,001,2022-04-14_10h28.29.661,Digit Span Task,2021.2.3,Linux x86_64,60.11783095,,,,,,,,,,,,,,,,,,,,,
,,,,,,7,0,7,0,1,0,001,2022-04-14_10h28.29.661,Digit Span Task,2021.2.3,Linux x86_64,60.11783095,,,,,,,,,,,,,,,,,,,,,
,,,,,,8,0,8,0,1,0,001,2022-04-14_10h28.29.661,Digit Span Task,2021.2.3,Linux x86_64,60.11783095,,,,,,,,,,,,,,,,,,,,,
,,,,,,9,0,9,0,1,0,001,2022-04-14_10h28.29.661,Digit Span Task,2021.2.3,Linux x86_64,60.11783095,,,,,,,,,,,,,,,,,,,,,
,,,,,,,,,,,0,001,2022-04-14_10h28.29.661,Digit Span Task,2021.2.3,Linux x86_64,60.11783095,87643743,0,0.013964971,-0.386162678,1,0,0,cont_button,0,1,1,1,1,10,8467348927,,,,,,
,,,,,,0,0,0,0,1,0,001,2022-04-14_10h28.29.661,Digit Span Task,2021.2.3,Linux x86_64,60.11783095,,,,,,,,,,,,,,,,,,,,,
,,,,,,1,0,1,0,1,0,001,2022-04-14_10h28.29.661,Digit Span Task,2021.2.3,Linux x86_64,60.11783095,,,,,,,,,,,,,,,,,,,,,
,,,,,,2,0,2,0,1,0,001,2022-04-14_10h28.29.661,Digit Span Task,2021.2.3,Linux x86_64,60.11783095,,,,,,,,,,,,,,,,,,,,,
,,,,,,3,0,3,0,1,0,001,2022-04-14_10h28.29.661,Digit Span Task,2021.2.3,Linux x86_64,60.11783095,,,,,,,,,,,,,,,,,,,,,
,,,,,,4,0,4,0,1,0,001,2022-04-14_10h28.29.661,Digit Span Task,2021.2.3,Linux x86_64,60.11783095,,,,,,,,,,,,,,,,,,,,,
,,,,,,5,0,5,0,1,0,001,2022-04-14_10h28.29.661,Digit Span Task,2021.2.3,Linux x86_64,60.11783095,,,,,,,,,,,,,,,,,,,,,
,,,,,,6,0,6,0,1,0,001,2022-04-14_10h28.29.661,Digit Span Task,2021.2.3,Linux x86_64,60.11783095,,,,,,,,,,,,,,,,,,,,,
,,,,,,7,0,7,0,1,0,001,2022-04-14_10h28.29.661,Digit Span Task,2021.2.3,Linux x86_64,60.11783095,,,,,,,,,,,,,,,,,,,,,
,,,,,,8,0,8,0,1,0,001,2022-04-14_10h28.29.661,Digit Span Task,2021.2.3,Linux x86_64,60.11783095,,,,,,,,,,,,,,,,,,,,,
,,,,,,9,0,9,0,1,0,001,2022-04-14_10h28.29.661,Digit Span Task,2021.2.3,Linux x86_64,60.11783095,,,,,,,,,,,,,,,,,,,,,
,,,,,,,,,,,0,001,2022-04-14_10h28.29.661,Digit Span Task,2021.2.3,Linux x86_64,60.11783095,4184941,0,0.048955282,-0.408317804,1,0,0,cont_button,0,2,2,2,1,10,4184946413,,,,,,
,,,,,,,,,,,0,001,2022-04-14_10h28.29.661,Digit Span Task,2021.2.3,Linux x86_64,60.11783095,,,,,,,,,,,,,,,,0,7,7,7,1,ten.xlsx
,,,,,,0,0,0,0,1,0,001,2022-04-14_10h28.29.661,Digit Span Task,2021.2.3,Linux x86_64,60.11783095,,,,,,,,,,,,,,,,,,,,,
,,,,,,1,0,1,0,1,0,001,2022-04-14_10h28.29.661,Digit Span Task,2021.2.3,Linux x86_64,60.11783095,,,,,,,,,,,,,,,,,,,,,
,,,,,,2,0,2,0,1,0,001,2022-04-14_10h28.29.661,Digit Span Task,2021.2.3,Linux x86_64,60.11783095,,,,,,,,,,,,,,,,,,,,,
,,,,,,3,0,3,0,1,0,001,2022-04-14_10h28.29.661,Digit Span Task,2021.2.3,Linux x86_64,60.11783095,,,,,,,,,,,,,,,,,,,,,
,,,,,,4,0,4,0,1,0,001,2022-04-14_10h28.29.661,Digit Span Task,2021.2.3,Linux x86_64,60.11783095,,,,,,,,,,,,,,,,,,,,,
,,,,,,5,0,5,0,1,0,001,2022-04-14_10h28.29.661,Digit Span Task,2021.2.3,Linux x86_64,60.11783095,,,,,,,,,,,,,,,,,,,,,
,,,,,,6,0,6,0,1,0,001,2022-04-14_10h28.29.661,Digit Span Task,2021.2.3,Linux x86_64,60.11783095,,,,,,,,,,,,,,,,,,,,,
,,,,,,7,0,7,0,1,0,001,2022-04-14_10h28.29.661,Digit Span Task,2021.2.3,Linux x86_64,60.11783095,,,,,,,,,,,,,,,,,,,,,
,,,,,,8,0,8,0,1,0,001,2022-04-14_10h28.29.661,Digit Span Task,2021.2.3,Linux x86_64,60.11783095,,,,,,,,,,,,,,,,,,,,,
,,,,,,9,0,9,0,1,0,001,2022-04-14_10h28.29.661,Digit Span Task,2021.2.3,Linux x86_64,60.11783095,,,,,,,,,,,,,,,,,,,,,
,,,,,,10,0,10,0,1,0,001,2022-04-14_10h28.29.661,Digit Span Task,2021.2.3,Linux x86_64,60.11783095,,,,,,,,,,,,,,,,,,,,,
,,,,,,,,,,,0,001,2022-04-14_10h28.29.661,Digit Span Task,2021.2.3,Linux x86_64,60.11783095,74329076573,0,-0.029345751,-0.417440971,1,0,0,cont_button,0,0,0,0,1,11,73290740563,,,,,,
,,,,,,0,0,0,0,1,0,001,2022-04-14_10h28.29.661,Digit Span Task,2021.2.3,Linux x86_64,60.11783095,,,,,,,,,,,,,,,,,,,,,
,,,,,,1,0,1,0,1,0,001,2022-04-14_10h28.29.661,Digit Span Task,2021.2.3,Linux x86_64,60.11783095,,,,,,,,,,,,,,,,,,,,,
,,,,,,2,0,2,0,1,0,001,2022-04-14_10h28.29.661,Digit Span Task,2021.2.3,Linux x86_64,60.11783095,,,,,,,,,,,,,,,,,,,,,
,,,,,,3,0,3,0,1,0,001,2022-04-14_10h28.29.661,Digit Span Task,2021.2.3,Linux x86_64,60.11783095,,,,,,,,,,,,,,,,,,,,,
,,,,,,4,0,4,0,1,0,001,2022-04-14_10h28.29.661,Digit Span Task,2021.2.3,Linux x86_64,60.11783095,,,,,,,,,,,,,,,,,,,,,
,,,,,,5,0,5,0,1,0,001,2022-04-14_10h28.29.661,Digit Span Task,2021.2.3,Linux x86_64,60.11783095,,,,,,,,,,,,,,,,,,,,,
,,,,,,6,0,6,0,1,0,001,2022-04-14_10h28.29.661,Digit Span Task,2021.2.3,Linux x86_64,60.11783095,,,,,,,,,,,,,,,,,,,,,
,,,,,,7,0,7,0,1,0,001,2022-04-14_10h28.29.661,Digit Span Task,2021.2.3,Linux x86_64,60.11783095,,,,,,,,,,,,,,,,,,,,,
,,,,,,8,0,8,0,1,0,001,2022-04-14_10h28.29.661,Digit Span Task,2021.2.3,Linux x86_64,60.11783095,,,,,,,,,,,,,,,,,,,,,
,,,,,,9,0,9,0,1,0,001,2022-04-14_10h28.29.661,Digit Span Task,2021.2.3,Linux x86_64,60.11783095,,,,,,,,,,,,,,,,,,,,,
,,,,,,10,0,10,0,1,0,001,2022-04-14_10h28.29.661,Digit Span Task,2021.2.3,Linux x86_64,60.11783095,,,,,,,,,,,,,,,,,,,,,
,,,,,,,,,,,0,001,2022-04-14_10h28.29.661,Digit Span Task,2021.2.3,Linux x86_64,60.11783095,74329022,0,0.026047548,-0.413262765,1,0,0,cont_button,0,1,1,1,1,11,74948772224,,,,,,
,,,,,,0,0,0,0,1,0,001,2022-04-14_10h28.29.661,Digit Span Task,2021.2.3,Linux x86_64,60.11783095,,,,,,,,,,,,,,,,,,,,,
,,,,,,1,0,1,0,1,0,001,2022-04-14_10h28.29.661,Digit Span Task,2021.2.3,Linux x86_64,60.11783095,,,,,,,,,,,,,,,,,,,,,
,,,,,,2,0,2,0,1,0,001,2022-04-14_10h28.29.661,Digit Span Task,2021.2.3,Linux x86_64,60.11783095,,,,,,,,,,,,,,,,,,,,,
,,,,,,3,0,3,0,1,0,001,2022-04-14_10h28.29.661,Digit Span Task,2021.2.3,Linux x86_64,60.11783095,,,,,,,,,,,,,,,,,,,,,
,,,,,,4,0,4,0,1,0,001,2022-04-14_10h28.29.661,Digit Span Task,2021.2.3,Linux x86_64,60.11783095,,,,,,,,,,,,,,,,,,,,,
,,,,,,5,0,5,0,1,0,001,2022-04-14_10h28.29.661,Digit Span Task,2021.2.3,Linux x86_64,60.11783095,,,,,,,,,,,,,,,,,,,,,
,,,,,,6,0,6,0,1,0,001,2022-04-14_10h28.29.661,Digit Span Task,2021.2.3,Linux x86_64,60.11783095,,,,,,,,,,,,,,,,,,,,,
,,,,,,7,0,7,0,1,0,001,2022-04-14_10h28.29.661,Digit Span Task,2021.2.3,Linux x86_64,60.11783095,,,,,,,,,,,,,,,,,,,,,
,,,,,,8,0,8,0,1,0,001,2022-04-14_10h28.29.661,Digit Span Task,2021.2.3,Linux x86_64,60.11783095,,,,,,,,,,,,,,,,,,,,,
,,,,,,9,0,9,0,1,0,001,2022-04-14_10h28.29.661,Digit Span Task,2021.2.3,Linux x86_64,60.11783095,,,,,,,,,,,,,,,,,,,,,
,,,,,,10,0,10,0,1,0,001,2022-04-14_10h28.29.661,Digit Span Task,2021.2.3,Linux x86_64,60.11783095,,,,,,,,,,,,,,,,,,,,,
,,,,,,,,,,,0,001,2022-04-14_10h28.29.661,Digit Span Task,2021.2.3,Linux x86_64,60.11783095,97342290,0,0.051245928,-0.381454706,1,0,0,cont_button,0,2,2,2,1,11,97084622072,,,,,,
,,,,,,,,,,,0,001,2022-04-14_10h28.29.661,Digit Span Task,2021.2.3,Linux x86_64,60.11783095,,,,,,,,,,,,,,,,0,8,8,8,1,eleven.xlsx
,,,,,,0,0,0,0,1,0,001,2022-04-14_10h28.29.661,Digit Span Task,2021.2.3,Linux x86_64,60.11783095,,,,,,,,,,,,,,,,,,,,,
,,,,,,1,0,1,0,1,0,001,2022-04-14_10h28.29.661,Digit Span Task,2021.2.3,Linux x86_64,60.11783095,,,,,,,,,,,,,,,,,,,,,
,,,,,,2,0,2,0,1,0,001,2022-04-14_10h28.29.661,Digit Span Task,2021.2.3,Linux x86_64,60.11783095,,,,,,,,,,,,,,,,,,,,,
,,,,,,3,0,3,0,1,0,001,2022-04-14_10h28.29.661,Digit Span Task,2021.2.3,Linux x86_64,60.11783095,,,,,,,,,,,,,,,,,,,,,
,,,,,,4,0,4,0,1,0,001,2022-04-14_10h28.29.661,Digit Span Task,2021.2.3,Linux x86_64,60.11783095,,,,,,,,,,,,,,,,,,,,,
,,,,,,5,0,5,0,1,0,001,2022-04-14_10h28.29.661,Digit Span Task,2021.2.3,Linux x86_64,60.11783095,,,,,,,,,,,,,,,,,,,,,
,,,,,,6,0,6,0,1,0,001,2022-04-14_10h28.29.661,Digit Span Task,2021.2.3,Linux x86_64,60.11783095,,,,,,,,,,,,,,,,,,,,,
,,,,,,7,0,7,0,1,0,001,2022-04-14_10h28.29.661,Digit Span Task,2021.2.3,Linux x86_64,60.11783095,,,,,,,,,,,,,,,,,,,,,
,,,,,,8,0,8,0,1,0,001,2022-04-14_10h28.29.661,Digit Span Task,2021.2.3,Linux x86_64,60.11783095,,,,,,,,,,,,,,,,,,,,,
,,,,,,9,0,9,0,1,0,001,2022-04-14_10h28.29.661,Digit Span Task,2021.2.3,Linux x86_64,60.11783095,,,,,,,,,,,,,,,,,,,,,
,,,,,,10,0,10,0,1,0,001,2022-04-14_10h28.29.661,Digit Span Task,2021.2.3,Linux x86_64,60.11783095,,,,,,,,,,,,,,,,,,,,,
,,,,,,11,0,11,0,1,0,001,2022-04-14_10h28.29.661,Digit Span Task,2021.2.3,Linux x86_64,60.11783095,,,,,,,,,,,,,,,,,,,,,
,,,,,,,,,,,0,001,2022-04-14_10h28.29.661,Digit Span Task,2021.2.3,Linux x86_64,60.11783095,631458097,0,0.056386391,-0.389565706,1,0,0,cont_button,0,0,0,0,1,12,6.81346E+11,,,,,,
,,,,,,0,0,0,0,1,0,001,2022-04-14_10h28.29.661,Digit Span Task,2021.2.3,Linux x86_64,60.11783095,,,,,,,,,,,,,,,,,,,,,
,,,,,,1,0,1,0,1,0,001,2022-04-14_10h28.29.661,Digit Span Task,2021.2.3,Linux x86_64,60.11783095,,,,,,,,,,,,,,,,,,,,,
,,,,,,2,0,2,0,1,0,001,2022-04-14_10h28.29.661,Digit Span Task,2021.2.3,Linux x86_64,60.11783095,,,,,,,,,,,,,,,,,,,,,
,,,,,,3,0,3,0,1,0,001,2022-04-14_10h28.29.661,Digit Span Task,2021.2.3,Linux x86_64,60.11783095,,,,,,,,,,,,,,,,,,,,,
,,,,,,4,0,4,0,1,0,001,2022-04-14_10h28.29.661,Digit Span Task,2021.2.3,Linux x86_64,60.11783095,,,,,,,,,,,,,,,,,,,,,
,,,,,,5,0,5,0,1,0,001,2022-04-14_10h28.29.661,Digit Span Task,2021.2.3,Linux x86_64,60.11783095,,,,,,,,,,,,,,,,,,,,,
,,,,,,6,0,6,0,1,0,001,2022-04-14_10h28.29.661,Digit Span Task,2021.2.3,Linux x86_64,60.11783095,,,,,,,,,,,,,,,,,,,,,
,,,,,,7,0,7,0,1,0,001,2022-04-14_10h28.29.661,Digit Span Task,2021.2.3,Linux x86_64,60.11783095,,,,,,,,,,,,,,,,,,,,,
,,,,,,8,0,8,0,1,0,001,2022-04-14_10h28.29.661,Digit Span Task,2021.2.3,Linux x86_64,60.11783095,,,,,,,,,,,,,,,,,,,,,
,,,,,,9,0,9,0,1,0,001,2022-04-14_10h28.29.661,Digit Span Task,2021.2.3,Linux x86_64,60.11783095,,,,,,,,,,,,,,,,,,,,,
,,,,,,10,0,10,0,1,0,001,2022-04-14_10h28.29.661,Digit Span Task,2021.2.3,Linux x86_64,60.11783095,,,,,,,,,,,,,,,,,,,,,
,,,,,,11,0,11,0,1,0,001,2022-04-14_10h28.29.661,Digit Span Task,2021.2.3,Linux x86_64,60.11783095,,,,,,,,,,,,,,,,,,,,,
,,,,,,,,,,,0,001,2022-04-14_10h28.29.661,Digit Span Task,2021.2.3,Linux x86_64,60.11783095,6483971,0,-0.051998059,-0.383076827,1,0,0,cont_button,0,1,1,1,1,12,8.7238E+11,,,,,,
,,,,,,0,0,0,0,1,0,001,2022-04-14_10h28.29.661,Digit Span Task,2021.2.3,Linux x86_64,60.11783095,,,,,,,,,,,,,,,,,,,,,
,,,,,,1,0,1,0,1,0,001,2022-04-14_10h28.29.661,Digit Span Task,2021.2.3,Linux x86_64,60.11783095,,,,,,,,,,,,,,,,,,,,,
,,,,,,2,0,2,0,1,0,001,2022-04-14_10h28.29.661,Digit Span Task,2021.2.3,Linux x86_64,60.11783095,,,,,,,,,,,,,,,,,,,,,
,,,,,,3,0,3,0,1,0,001,2022-04-14_10h28.29.661,Digit Span Task,2021.2.3,Linux x86_64,60.11783095,,,,,,,,,,,,,,,,,,,,,
,,,,,,4,0,4,0,1,0,001,2022-04-14_10h28.29.661,Digit Span Task,2021.2.3,Linux x86_64,60.11783095,,,,,,,,,,,,,,,,,,,,,
,,,,,,5,0,5,0,1,0,001,2022-04-14_10h28.29.661,Digit Span Task,2021.2.3,Linux x86_64,60.11783095,,,,,,,,,,,,,,,,,,,,,
,,,,,,6,0,6,0,1,0,001,2022-04-14_10h28.29.661,Digit Span Task,2021.2.3,Linux x86_64,60.11783095,,,,,,,,,,,,,,,,,,,,,
,,,,,,7,0,7,0,1,0,001,2022-04-14_10h28.29.661,Digit Span Task,2021.2.3,Linux x86_64,60.11783095,,,,,,,,,,,,,,,,,,,,,
,,,,,,8,0,8,0,1,0,001,2022-04-14_10h28.29.661,Digit Span Task,2021.2.3,Linux x86_64,60.11783095,,,,,,,,,,,,,,,,,,,,,
,,,,,,9,0,9,0,1,0,001,2022-04-14_10h28.29.661,Digit Span Task,2021.2.3,Linux x86_64,60.11783095,,,,,,,,,,,,,,,,,,,,,
,,,,,,10,0,10,0,1,0,001,2022-04-14_10h28.29.661,Digit Span Task,2021.2.3,Linux x86_64,60.11783095,,,,,,,,,,,,,,,,,,,,,
,,,,,,11,0,11,0,1,0,001,2022-04-14_10h28.29.661,Digit Span Task,2021.2.3,Linux x86_64,60.11783095,,,,,,,,,,,,,,,,,,,,,
,,,,,,,,,,,0,001,2022-04-14_10h28.29.661,Digit Span Task,2021.2.3,Linux x86_64,60.11783095,2464897022,0,0.030447642,-0.412171125,1,0,0,cont_button,0,2,2,2,1,12,2.41072E+11,,,,,,
,,,,,,,,,,,0,001,2022-04-14_10h28.29.661,Digit Span Task,2021.2.3,Linux x86_64,60.11783095,,,,,,,,,,,,,,,,0,9,9,9,1,twelve.xlsx
,,,,,,0,0,0,0,1,0,001,2022-04-14_10h28.29.661,Digit Span Task,2021.2.3,Linux x86_64,60.11783095,,,,,,,,,,,,,,,,,,,,,
,,,,,,1,0,1,0,1,0,001,2022-04-14_10h28.29.661,Digit Span Task,2021.2.3,Linux x86_64,60.11783095,,,,,,,,,,,,,,,,,,,,,
,,,,,,2,0,2,0,1,0,001,2022-04-14_10h28.29.661,Digit Span Task,2021.2.3,Linux x86_64,60.11783095,,,,,,,,,,,,,,,,,,,,,
,,,,,,,,,,,0,001,2022-04-14_10h28.29.661,Digit Span Task,2021.2.3,Linux x86_64,60.11783095,217,1,0.085710605,-0.425387065,1,0,0,cont_button,0,0,0,0,1,3,217,,,,,,
,,,,,,0,0,0,0,1,0,001,2022-04-14_10h28.29.661,Digit Span Task,2021.2.3,Linux x86_64,60.11783095,,,,,,,,,,,,,,,,,,,,,
,,,,,,1,0,1,0,1,0,001,2022-04-14_10h28.29.661,Digit Span Task,2021.2.3,Linux x86_64,60.11783095,,,,,,,,,,,,,,,,,,,,,
,,,,,,2,0,2,0,1,0,001,2022-04-14_10h28.29.661,Digit Span Task,2021.2.3,Linux x86_64,60.11783095,,,,,,,,,,,,,,,,,,,,,
,,,,,,,,,,,0,001,2022-04-14_10h28.29.661,Digit Span Task,2021.2.3,Linux x86_64,60.11783095,486,1,0.123756011,-0.410484393,1,0,0,cont_button,0,1,1,1,1,3,486,,,,,,
,,,,,,0,0,0,0,1,0,001,2022-04-14_10h28.29.661,Digit Span Task,2021.2.3,Linux x86_64,60.11783095,,,,,,,,,,,,,,,,,,,,,
,,,,,,1,0,1,0,1,0,001,2022-04-14_10h28.29.661,Digit Span Task,2021.2.3,Linux x86_64,60.11783095,,,,,,,,,,,,,,,,,,,,,
,,,,,,2,0,2,0,1,0,001,2022-04-14_10h28.29.661,Digit Span Task,2021.2.3,Linux x86_64,60.11783095,,,,,,,,,,,,,,,,,,,,,
,,,,,,,,,,,0,001,2022-04-14_10h28.29.661,Digit Span Task,2021.2.3,Linux x86_64,60.11783095,760,1,0.09448266,-0.424698512,1,0,0,cont_button,0,2,2,2,1,3,760,,,,,,
,,,,,,,,,,,0,001,2022-04-14_10h28.29.661,Digit Span Task,2021.2.3,Linux x86_64,60.11783095,,,,,,,,,,,,,,,,1,0,10,0,1,three.xlsx
,,,,,,0,0,0,0,1,0,001,2022-04-14_10h28.29.661,Digit Span Task,2021.2.3,Linux x86_64,60.11783095,,,,,,,,,,,,,,,,,,,,,
,,,,,,1,0,1,0,1,0,001,2022-04-14_10h28.29.661,Digit Span Task,2021.2.3,Linux x86_64,60.11783095,,,,,,,,,,,,,,,,,,,,,
,,,,,,2,0,2,0,1,0,001,2022-04-14_10h28.29.661,Digit Span Task,2021.2.3,Linux x86_64,60.11783095,,,,,,,,,,,,,,,,,,,,,
,,,,,,3,0,3,0,1,0,001,2022-04-14_10h28.29.661,Digit Span Task,2021.2.3,Linux x86_64,60.11783095,,,,,,,,,,,,,,,,,,,,,
,,,,,,,,,,,0,001,2022-04-14_10h28.29.661,Digit Span Task,2021.2.3,Linux x86_64,60.11783095,3141,1,0.062169393,-0.393274387,1,0,0,cont_button,0,0,0,0,1,4,3141,,,,,,
,,,,,,0,0,0,0,1,0,001,2022-04-14_10h28.29.661,Digit Span Task,2021.2.3,Linux x86_64,60.11783095,,,,,,,,,,,,,,,,,,,,,
,,,,,,1,0,1,0,1,0,001,2022-04-14_10h28.29.661,Digit Span Task,2021.2.3,Linux x86_64,60.11783095,,,,,,,,,,,,,,,,,,,,,
,,,,,,2,0,2,0,1,0,001,2022-04-14_10h28.29.661,Digit Span Task,2021.2.3,Linux x86_64,60.11783095,,,,,,,,,,,,,,,,,,,,,
,,,,,,3,0,3,0,1,0,001,2022-04-14_10h28.29.661,Digit Span Task,2021.2.3,Linux x86_64,60.11783095,,,,,,,,,,,,,,,,,,,,,
,,,,,,,,,,,0,001,2022-04-14_10h28.29.661,Digit Span Task,2021.2.3,Linux x86_64,60.11783095,6351,1,0.031185627,-0.431609233,1,0,0,cont_button,0,1,1,1,1,4,6351,,,,,,
,,,,,,0,0,0,0,1,0,001,2022-04-14_10h28.29.661,Digit Span Task,2021.2.3,Linux x86_64,60.11783095,,,,,,,,,,,,,,,,,,,,,
,,,,,,1,0,1,0,1,0,001,2022-04-14_10h28.29.661,Digit Span Task,2021.2.3,Linux x86_64,60.11783095,,,,,,,,,,,,,,,,,,,,,
,,,,,,2,0,2,0,1,0,001,2022-04-14_10h28.29.661,Digit Span Task,2021.2.3,Linux x86_64,60.11783095,,,,,,,,,,,,,,,,,,,,,
,,,,,,3,0,3,0,1,0,001,2022-04-14_10h28.29.661,Digit Span Task,2021.2.3,Linux x86_64,60.11783095,,,,,,,,,,,,,,,,,,,,,
,,,,,,,,,,,0,001,2022-04-14_10h28.29.661,Digit Span Task,2021.2.3,Linux x86_64,60.11783095,2391,1,-0.017080704,-0.415973584,1,0,0,cont_button,0,2,2,2,1,4,2391,,,,,,
,,,,,,,,,,,0,001,2022-04-14_10h28.29.661,Digit Span Task,2021.2.3,Linux x86_64,60.11783095,,,,,,,,,,,,,,,,1,1,11,1,1,four.xlsx
,,,,,,0,0,0,0,1,0,001,2022-04-14_10h28.29.661,Digit Span Task,2021.2.3,Linux x86_64,60.11783095,,,,,,,,,,,,,,,,,,,,,
,,,,,,1,0,1,0,1,0,001,2022-04-14_10h28.29.661,Digit Span Task,2021.2.3,Linux x86_64,60.11783095,,,,,,,,,,,,,,,,,,,,,
,,,,,,2,0,2,0,1,0,001,2022-04-14_10h28.29.661,Digit Span Task,2021.2.3,Linux x86_64,60.11783095,,,,,,,,,,,,,,,,,,,,,
,,,,,,3,0,3,0,1,0,001,2022-04-14_10h28.29.661,Digit Span Task,2021.2.3,Linux x86_64,60.11783095,,,,,,,,,,,,,,,,,,,,,
,,,,,,4,0,4,0,1,0,001,2022-04-14_10h28.29.661,Digit Span Task,2021.2.3,Linux x86_64,60.11783095,,,,,,,,,,,,,,,,,,,,,
,,,,,,,,,,,0,001,2022-04-14_10h28.29.661,Digit Span Task,2021.2.3,Linux x86_64,60.11783095,14592,0,-0.067238887,-0.385535399,1,0,0,cont_button,0,0,0,0,1,5,14932,,,,,,
,,,,,,0,0,0,0,1,0,001,2022-04-14_10h28.29.661,Digit Span Task,2021.2.3,Linux x86_64,60.11783095,,,,,,,,,,,,,,,,,,,,,
,,,,,,1,0,1,0,1,0,001,2022-04-14_10h28.29.661,Digit Span Task,2021.2.3,Linux x86_64,60.11783095,,,,,,,,,,,,,,,,,,,,,
,,,,,,2,0,2,0,1,0,001,2022-04-14_10h28.29.661,Digit Span Task,2021.2.3,Linux x86_64,60.11783095,,,,,,,,,,,,,,,,,,,,,
,,,,,,3,0,3,0,1,0,001,2022-04-14_10h28.29.661,Digit Span Task,2021.2.3,Linux x86_64,60.11783095,,,,,,,,,,,,,,,,,,,,,
,,,,,,4,0,4,0,1,0,001,2022-04-14_10h28.29.661,Digit Span Task,2021.2.3,Linux x86_64,60.11783095,,,,,,,,,,,,,,,,,,,,,
,,,,,,,,,,,0,001,2022-04-14_10h28.29.661,Digit Span Task,2021.2.3,Linux x86_64,60.11783095,10646,1,-0.011442741,-0.410266797,1,0,0,cont_button,0,1,1,1,1,5,10646,,,,,,
,,,,,,0,0,0,0,1,0,001,2022-04-14_10h28.29.661,Digit Span Task,2021.2.3,Linux x86_64,60.11783095,,,,,,,,,,,,,,,,,,,,,
,,,,,,1,0,1,0,1,0,001,2022-04-14_10h28.29.661,Digit Span Task,2021.2.3,Linux x86_64,60.11783095,,,,,,,,,,,,,,,,,,,,,
,,,,,,2,0,2,0,1,0,001,2022-04-14_10h28.29.661,Digit Span Task,2021.2.3,Linux x86_64,60.11783095,,,,,,,,,,,,,,,,,,,,,
,,,,,,3,0,3,0,1,0,001,2022-04-14_10h28.29.661,Digit Span Task,2021.2.3,Linux x86_64,60.11783095,,,,,,,,,,,,,,,,,,,,,
,,,,,,4,0,4,0,1,0,001,2022-04-14_10h28.29.661,Digit Span Task,2021.2.3,Linux x86_64,60.11783095,,,,,,,,,,,,,,,,,,,,,
,,,,,,,,,,,0,001,2022-04-14_10h28.29.661,Digit Span Task,2021.2.3,Linux x86_64,60.11783095,74832,1,-0.12368234,-0.425116777,1,0,0,cont_button,0,2,2,2,1,5,74832,,,,,,
,,,,,,,,,,,0,001,2022-04-14_10h28.29.661,Digit Span Task,2021.2.3,Linux x86_64,60.11783095,,,,,,,,,,,,,,,,1,2,12,2,1,five.xlsx
,,,,,,0,0,0,0,1,0,001,2022-04-14_10h28.29.661,Digit Span Task,2021.2.3,Linux x86_64,60.11783095,,,,,,,,,,,,,,,,,,,,,
,,,,,,1,0,1,0,1,0,001,2022-04-14_10h28.29.661,Digit Span Task,2021.2.3,Linux x86_64,60.11783095,,,,,,,,,,,,,,,,,,,,,
,,,,,,2,0,2,0,1,0,001,2022-04-14_10h28.29.661,Digit Span Task,2021.2.3,Linux x86_64,60.11783095,,,,,,,,,,,,,,,,,,,,,
,,,,,,3,0,3,0,1,0,001,2022-04-14_10h28.29.661,Digit Span Task,2021.2.3,Linux x86_64,60.11783095,,,,,,,,,,,,,,,,,,,,,
,,,,,,4,0,4,0,1,0,001,2022-04-14_10h28.29.661,Digit Span Task,2021.2.3,Linux x86_64,60.11783095,,,,,,,,,,,,,,,,,,,,,
,,,,,,5,0,5,0,1,0,001,2022-04-14_10h28.29.661,Digit Span Task,2021.2.3,Linux x86_64,60.11783095,,,,,,,,,,,,,,,,,,,,,
,,,,,,,,,,,0,001,2022-04-14_10h28.29.661,Digit Span Task,2021.2.3,Linux x86_64,60.11783095,93648,0,-0.096817255,-0.410640955,1,0,0,cont_button,0,0,0,0,1,6,934648,,,,,,
,,,,,,0,0,0,0,1,0,001,2022-04-14_10h28.29.661,Digit Span Task,2021.2.3,Linux x86_64,60.11783095,,,,,,,,,,,,,,,,,,,,,
,,,,,,1,0,1,0,1,0,001,2022-04-14_10h28.29.661,Digit Span Task,2021.2.3,Linux x86_64,60.11783095,,,,,,,,,,,,,,,,,,,,,
,,,,,,2,0,2,0,1,0,001,2022-04-14_10h28.29.661,Digit Span Task,2021.2.3,Linux x86_64,60.11783095,,,,,,,,,,,,,,,,,,,,,
,,,,,,3,0,3,0,1,0,001,2022-04-14_10h28.29.661,Digit Span Task,2021.2.3,Linux x86_64,60.11783095,,,,,,,,,,,,,,,,,,,,,
,,,,,,4,0,4,0,1,0,001,2022-04-14_10h28.29.661,Digit Span Task,2021.2.3,Linux x86_64,60.11783095,,,,,,,,,,,,,,,,,,,,,
,,,,,,5,0,5,0,1,0,001,2022-04-14_10h28.29.661,Digit Span Task,2021.2.3,Linux x86_64,60.11783095,,,,,,,,,,,,,,,,,,,,,
,,,,,,,,,,,0,001,2022-04-14_10h28.29.661,Digit Span Task,2021.2.3,Linux x86_64,60.11783095,1796390,0,-0.023312092,-0.408587933,1,0,0,cont_button,0,1,1,1,1,6,179390,,,,,,
,,,,,,0,0,0,0,1,0,001,2022-04-14_10h28.29.661,Digit Span Task,2021.2.3,Linux x86_64,60.11783095,,,,,,,,,,,,,,,,,,,,,
,,,,,,1,0,1,0,1,0,001,2022-04-14_10h28.29.661,Digit Span Task,2021.2.3,Linux x86_64,60.11783095,,,,,,,,,,,,,,,,,,,,,
,,,,,,2,0,2,0,1,0,001,2022-04-14_10h28.29.661,Digit Span Task,2021.2.3,Linux x86_64,60.11783095,,,,,,,,,,,,,,,,,,,,,
,,,,,,3,0,3,0,1,0,001,2022-04-14_10h28.29.661,Digit Span Task,2021.2.3,Linux x86_64,60.11783095,,,,,,,,,,,,,,,,,,,,,
,,,,,,4,0,4,0,1,0,001,2022-04-14_10h28.29.661,Digit Span Task,2021.2.3,Linux x86_64,60.11783095,,,,,,,,,,,,,,,,,,,,,
,,,,,,5,0,5,0,1,0,001,2022-04-14_10h28.29.661,Digit Span Task,2021.2.3,Linux x86_64,60.11783095,,,,,,,,,,,,,,,,,,,,,
