start_mouse.x,start_mouse.y,start_mouse.leftButton,start_mouse.midButton,start_mouse.rightButton,start_mouse.clicked_name,digitLoop.thisRepN,digitLoop.thisTrialN,digitLoop.thisN,digitLoop.thisIndex,digitLoop.ran,participant,session,date,expName,psychopyVersion,OS,frameRate,textbox.text,correct,mouse.x,mouse.y,mouse.leftButton,mouse.midButton,mouse.rightButton,mouse.clicked_name,trials.thisRepN,trials.thisTrialN,trials.thisN,trials.thisIndex,trials.ran,digitSpan,digits,blocks.thisRepN,blocks.thisTrialN,blocks.thisN,blocks.thisIndex,blocks.ran,condition_file
0.061505,-0.392074347,1,0,0,cont_button,0,0,0,0,1,0,001,2022-04-19_10h30.28.789,Digit Span Task,2021.2.3,Linux x86_64,60.06006006,,,,,,,,,,,,,,,,,,,,,
,,,,,,1,0,1,0,1,0,001,2022-04-19_10h30.28.789,Digit Span Task,2021.2.3,Linux x86_64,60.06006006,,,,,,,,,,,,,,,,,,,,,
,,,,,,2,0,2,0,1,0,001,2022-04-19_10h30.28.789,Digit Span Task,2021.2.3,Linux x86_64,60.06006006,,,,,,,,,,,,,,,,,,,,,
,,,,,,,,,,,0,001,2022-04-19_10h30.28.789,Digit Span Task,2021.2.3,Linux x86_64,60.06006006,217,1,0.015512307,-0.418477535,1,0,0,cont_button,0,0,0,0,1,3,217,,,,,,
,,,,,,0,0,0,0,1,0,001,2022-04-19_10h30.28.789,Digit Span Task,2021.2.3,Linux x86_64,60.06006006,,,,,,,,,,,,,,,,,,,,,
,,,,,,1,0,1,0,1,0,001,2022-04-19_10h30.28.789,Digit Span Task,2021.2.3,Linux x86_64,60.06006006,,,,,,,,,,,,,,,,,,,,,
,,,,,,2,0,2,0,1,0,001,2022-04-19_10h30.28.789,Digit Span Task,2021.2.3,Linux x86_64,60.06006006,,,,,,,,,,,,,,,,,,,,,
,,,,,,,,,,,0,001,2022-04-19_10h30.28.789,Digit Span Task,2021.2.3,Linux x86_64,60.06006006,486,1,0.058157285,-0.377722581,1,0,0,cont_button,0,1,1,1,1,3,486,,,,,,
,,,,,,0,0,0,0,1,0,001,2022-04-19_10h30.28.789,Digit Span Task,2021.2.3,Linux x86_64,60.06006006,,,,,,,,,,,,,,,,,,,,,
,,,,,,1,0,1,0,1,0,001,2022-04-19_10h30.28.789,Digit Span Task,2021.2.3,Linux x86_64,60.06006006,,,,,,,,,,,,,,,,,,,,,
,,,,,,2,0,2,0,1,0,001,2022-04-19_10h30.28.789,Digit Span Task,2021.2.3,Linux x86_64,60.06006006,,,,,,,,,,,,,,,,,,,,,
,,,,,,,,,,,0,001,2022-04-19_10h30.28.789,Digit Span Task,2021.2.3,Linux x86_64,60.06006006,760,1,-0.070438941,-0.41402483,1,0,0,cont_button,0,2,2,2,1,3,760,,,,,,
,,,,,,,,,,,0,001,2022-04-19_10h30.28.789,Digit Span Task,2021.2.3,Linux x86_64,60.06006006,,,,,,,,,,,,,,,,0,0,0,0,1,three.xlsx
,,,,,,0,0,0,0,1,0,001,2022-04-19_10h30.28.789,Digit Span Task,2021.2.3,Linux x86_64,60.06006006,,,,,,,,,,,,,,,,,,,,,
,,,,,,1,0,1,0,1,0,001,2022-04-19_10h30.28.789,Digit Span Task,2021.2.3,Linux x86_64,60.06006006,,,,,,,,,,,,,,,,,,,,,
,,,,,,2,0,2,0,1,0,001,2022-04-19_10h30.28.789,Digit Span Task,2021.2.3,Linux x86_64,60.06006006,,,,,,,,,,,,,,,,,,,,,
,,,,,,3,0,3,0,1,0,001,2022-04-19_10h30.28.789,Digit Span Task,2021.2.3,Linux x86_64,60.06006006,,,,,,,,,,,,,,,,,,,,,
,,,,,,,,,,,0,001,2022-04-19_10h30.28.789,Digit Span Task,2021.2.3,Linux x86_64,60.06006006,3141,1,-0.002151887,-0.419820706,1,0,0,cont_button,0,0,0,0,1,4,3141,,,,,,
,,,,,,0,0,0,0,1,0,001,2022-04-19_10h30.28.789,Digit Span Task,2021.2.3,Linux x86_64,60.06006006,,,,,,,,,,,,,,,,,,,,,
,,,,,,1,0,1,0,1,0,001,2022-04-19_10h30.28.789,Digit Span Task,2021.2.3,Linux x86_64,60.06006006,,,,,,,,,,,,,,,,,,,,,
,,,,,,2,0,2,0,1,0,001,2022-04-19_10h30.28.789,Digit Span Task,2021.2.3,Linux x86_64,60.06006006,,,,,,,,,,,,,,,,,,,,,
,,,,,,3,0,3,0,1,0,001,2022-04-19_10h30.28.789,Digit Span Task,2021.2.3,Linux x86_64,60.06006006,,,,,,,,,,,,,,,,,,,,,
,,,,,,,,,,,0,001,2022-04-19_10h30.28.789,Digit Span Task,2021.2.3,Linux x86_64,60.06006006,6351,1,0.03106761,-0.37493674,1,0,0,cont_button,0,1,1,1,1,4,6351,,,,,,
,,,,,,0,0,0,0,1,0,001,2022-04-19_10h30.28.789,Digit Span Task,2021.2.3,Linux x86_64,60.06006006,,,,,,,,,,,,,,,,,,,,,
,,,,,,1,0,1,0,1,0,001,2022-04-19_10h30.28.789,Digit Span Task,2021.2.3,Linux x86_64,60.06006006,,,,,,,,,,,,,,,,,,,,,
,,,,,,2,0,2,0,1,0,001,2022-04-19_10h30.28.789,Digit Span Task,2021.2.3,Linux x86_64,60.06006006,,,,,,,,,,,,,,,,,,,,,
,,,,,,3,0,3,0,1,0,001,2022-04-19_10h30.28.789,Digit Span Task,2021.2.3,Linux x86_64,60.06006006,,,,,,,,,,,,,,,,,,,,,
,,,,,,,,,,,0,001,2022-04-19_10h30.28.789,Digit Span Task,2021.2.3,Linux x86_64,60.06006006,2391,1,-0.011639833,-0.382687012,1,0,0,cont_button,0,2,2,2,1,4,2391,,,,,,
,,,,,,,,,,,0,001,2022-04-19_10h30.28.789,Digit Span Task,2021.2.3,Linux x86_64,60.06006006,,,,,,,,,,,,,,,,0,1,1,1,1,four.xlsx
,,,,,,0,0,0,0,1,0,001,2022-04-19_10h30.28.789,Digit Span Task,2021.2.3,Linux x86_64,60.06006006,,,,,,,,,,,,,,,,,,,,,
,,,,,,1,0,1,0,1,0,001,2022-04-19_10h30.28.789,Digit Span Task,2021.2.3,Linux x86_64,60.06006006,,,,,,,,,,,,,,,,,,,,,
,,,,,,2,0,2,0,1,0,001,2022-04-19_10h30.28.789,Digit Span Task,2021.2.3,Linux x86_64,60.06006006,,,,,,,,,,,,,,,,,,,,,
,,,,,,3,0,3,0,1,0,001,2022-04-19_10h30.28.789,Digit Span Task,2021.2.3,Linux x86_64,60.06006006,,,,,,,,,,,,,,,,,,,,,
,,,,,,4,0,4,0,1,0,001,2022-04-19_10h30.28.789,Digit Span Task,2021.2.3,Linux x86_64,60.06006006,,,,,,,,,,,,,,,,,,,,,
,,,,,,,,,,,0,001,2022-04-19_10h30.28.789,Digit Span Task,2021.2.3,Linux x86_64,60.06006006,14932,1,-0.036849419,-0.383357366,1,0,0,cont_button,0,0,0,0,1,5,14932,,,,,,
,,,,,,0,0,0,0,1,0,001,2022-04-19_10h30.28.789,Digit Span Task,2021.2.3,Linux x86_64,60.06006006,,,,,,,,,,,,,,,,,,,,,
,,,,,,1,0,1,0,1,0,001,2022-04-19_10h30.28.789,Digit Span Task,2021.2.3,Linux x86_64,60.06006006,,,,,,,,,,,,,,,,,,,,,
,,,,,,2,0,2,0,1,0,001,2022-04-19_10h30.28.789,Digit Span Task,2021.2.3,Linux x86_64,60.06006006,,,,,,,,,,,,,,,,,,,,,
,,,,,,3,0,3,0,1,0,001,2022-04-19_10h30.28.789,Digit Span Task,2021.2.3,Linux x86_64,60.06006006,,,,,,,,,,,,,,,,,,,,,
,,,,,,4,0,4,0,1,0,001,2022-04-19_10h30.28.789,Digit Span Task,2021.2.3,Linux x86_64,60.06006006,,,,,,,,,,,,,,,,,,,,,
,,,,,,,,,,,0,001,2022-04-19_10h30.28.789,Digit Span Task,2021.2.3,Linux x86_64,60.06006006,10646,1,0.077674071,-0.367639224,1,0,0,cont_button,0,1,1,1,1,5,10646,,,,,,
,,,,,,0,0,0,0,1,0,001,2022-04-19_10h30.28.789,Digit Span Task,2021.2.3,Linux x86_64,60.06006006,,,,,,,,,,,,,,,,,,,,,
,,,,,,1,0,1,0,1,0,001,2022-04-19_10h30.28.789,Digit Span Task,2021.2.3,Linux x86_64,60.06006006,,,,,,,,,,,,,,,,,,,,,
,,,,,,2,0,2,0,1,0,001,2022-04-19_10h30.28.789,Digit Span Task,2021.2.3,Linux x86_64,60.06006006,,,,,,,,,,,,,,,,,,,,,
,,,,,,3,0,3,0,1,0,001,2022-04-19_10h30.28.789,Digit Span Task,2021.2.3,Linux x86_64,60.06006006,,,,,,,,,,,,,,,,,,,,,
,,,,,,4,0,4,0,1,0,001,2022-04-19_10h30.28.789,Digit Span Task,2021.2.3,Linux x86_64,60.06006006,,,,,,,,,,,,,,,,,,,,,
,,,,,,,,,,,0,001,2022-04-19_10h30.28.789,Digit Span Task,2021.2.3,Linux x86_64,60.06006006,74382,0,0.0351909,-0.386826754,1,0,0,cont_button,0,2,2,2,1,5,74832,,,,,,
,,,,,,,,,,,0,001,2022-04-19_10h30.28.789,Digit Span Task,2021.2.3,Linux x86_64,60.06006006,,,,,,,,,,,,,,,,0,2,2,2,1,five.xlsx
,,,,,,0,0,0,0,1,0,001,2022-04-19_10h30.28.789,Digit Span Task,2021.2.3,Linux x86_64,60.06006006,,,,,,,,,,,,,,,,,,,,,
,,,,,,1,0,1,0,1,0,001,2022-04-19_10h30.28.789,Digit Span Task,2021.2.3,Linux x86_64,60.06006006,,,,,,,,,,,,,,,,,,,,,
,,,,,,2,0,2,0,1,0,001,2022-04-19_10h30.28.789,Digit Span Task,2021.2.3,Linux x86_64,60.06006006,,,,,,,,,,,,,,,,,,,,,
,,,,,,3,0,3,0,1,0,001,2022-04-19_10h30.28.789,Digit Span Task,2021.2.3,Linux x86_64,60.06006006,,,,,,,,,,,,,,,,,,,,,
,,,,,,4,0,4,0,1,0,001,2022-04-19_10h30.28.789,Digit Span Task,2021.2.3,Linux x86_64,60.06006006,,,,,,,,,,,,,,,,,,,,,
,,,,,,5,0,5,0,1,0,001,2022-04-19_10h30.28.789,Digit Span Task,2021.2.3,Linux x86_64,60.06006006,,,,,,,,,,,,,,,,,,,,,
,,,,,,,,,,,0,001,2022-04-19_10h30.28.789,Digit Span Task,2021.2.3,Linux x86_64,60.06006006,943469,0,-0.096423229,-0.409836372,1,0,0,cont_button,0,0,0,0,1,6,934648,,,,,,
,,,,,,0,0,0,0,1,0,001,2022-04-19_10h30.28.789,Digit Span Task,2021.2.3,Linux x86_64,60.06006006,,,,,,,,,,,,,,,,,,,,,
,,,,,,1,0,1,0,1,0,001,2022-04-19_10h30.28.789,Digit Span Task,2021.2.3,Linux x86_64,60.06006006,,,,,,,,,,,,,,,,,,,,,
,,,,,,2,0,2,0,1,0,001,2022-04-19_10h30.28.789,Digit Span Task,2021.2.3,Linux x86_64,60.06006006,,,,,,,,,,,,,,,,,,,,,
,,,,,,3,0,3,0,1,0,001,2022-04-19_10h30.28.789,Digit Span Task,2021.2.3,Linux x86_64,60.06006006,,,,,,,,,,,,,,,,,,,,,
,,,,,,4,0,4,0,1,0,001,2022-04-19_10h30.28.789,Digit Span Task,2021.2.3,Linux x86_64,60.06006006,,,,,,,,,,,,,,,,,,,,,
,,,,,,5,0,5,0,1,0,001,2022-04-19_10h30.28.789,Digit Span Task,2021.2.3,Linux x86_64,60.06006006,,,,,,,,,,,,,,,,,,,,,
,,,,,,,,,,,0,001,2022-04-19_10h30.28.789,Digit Span Task,2021.2.3,Linux x86_64,60.06006006,179390,1,-0.083733082,-0.390835285,1,0,0,cont_button,0,1,1,1,1,6,179390,,,,,,
,,,,,,0,0,0,0,1,0,001,2022-04-19_10h30.28.789,Digit Span Task,2021.2.3,Linux x86_64,60.06006006,,,,,,,,,,,,,,,,,,,,,
,,,,,,1,0,1,0,1,0,001,2022-04-19_10h30.28.789,Digit Span Task,2021.2.3,Linux x86_64,60.06006006,,,,,,,,,,,,,,,,,,,,,
,,,,,,2,0,2,0,1,0,001,2022-04-19_10h30.28.789,Digit Span Task,2021.2.3,Linux x86_64,60.06006006,,,,,,,,,,,,,,,,,,,,,
,,,,,,3,0,3,0,1,0,001,2022-04-19_10h30.28.789,Digit Span Task,2021.2.3,Linux x86_64,60.06006006,,,,,,,,,,,,,,,,,,,,,
,,,,,,4,0,4,0,1,0,001,2022-04-19_10h30.28.789,Digit Span Task,2021.2.3,Linux x86_64,60.06006006,,,,,,,,,,,,,,,,,,,,,
,,,,,,5,0,5,0,1,0,001,2022-04-19_10h30.28.789,Digit Span Task,2021.2.3,Linux x86_64,60.06006006,,,,,,,,,,,,,,,,,,,,,
,,,,,,,,,,,0,001,2022-04-19_10h30.28.789,Digit Span Task,2021.2.3,Linux x86_64,60.06006006,408288,1,-0.055104574,-0.381488562,1,0,0,cont_button,0,2,2,2,1,6,408288,,,,,,
,,,,,,,,,,,0,001,2022-04-19_10h30.28.789,Digit Span Task,2021.2.3,Linux x86_64,60.06006006,,,,,,,,,,,,,,,,0,3,3,3,1,six.xlsx
,,,,,,0,0,0,0,1,0,001,2022-04-19_10h30.28.789,Digit Span Task,2021.2.3,Linux x86_64,60.06006006,,,,,,,,,,,,,,,,,,,,,
,,,,,,1,0,1,0,1,0,001,2022-04-19_10h30.28.789,Digit Span Task,2021.2.3,Linux x86_64,60.06006006,,,,,,,,,,,,,,,,,,,,,
,,,,,,2,0,2,0,1,0,001,2022-04-19_10h30.28.789,Digit Span Task,2021.2.3,Linux x86_64,60.06006006,,,,,,,,,,,,,,,,,,,,,
,,,,,,3,0,3,0,1,0,001,2022-04-19_10h30.28.789,Digit Span Task,2021.2.3,Linux x86_64,60.06006006,,,,,,,,,,,,,,,,,,,,,
,,,,,,4,0,4,0,1,0,001,2022-04-19_10h30.28.789,Digit Span Task,2021.2.3,Linux x86_64,60.06006006,,,,,,,,,,,,,,,,,,,,,
,,,,,,5,0,5,0,1,0,001,2022-04-19_10h30.28.789,Digit Span Task,2021.2.3,Linux x86_64,60.06006006,,,,,,,,,,,,,,,,,,,,,
,,,,,,6,0,6,0,1,0,001,2022-04-19_10h30.28.789,Digit Span Task,2021.2.3,Linux x86_64,60.06006006,,,,,,,,,,,,,,,,,,,,,
,,,,,,,,,,,0,001,2022-04-19_10h30.28.789,Digit Span Task,2021.2.3,Linux x86_64,60.06006006,4932893,0,0.003265301,-0.374643405,1,0,0,cont_button,0,0,0,0,1,7,4498237,,,,,,
,,,,,,0,0,0,0,1,0,001,2022-04-19_10h30.28.789,Digit Span Task,2021.2.3,Linux x86_64,60.06006006,,,,,,,,,,,,,,,,,,,,,
,,,,,,1,0,1,0,1,0,001,2022-04-19_10h30.28.789,Digit Span Task,2021.2.3,Linux x86_64,60.06006006,,,,,,,,,,,,,,,,,,,,,
,,,,,,2,0,2,0,1,0,001,2022-04-19_10h30.28.789,Digit Span Task,2021.2.3,Linux x86_64,60.06006006,,,,,,,,,,,,,,,,,,,,,
,,,,,,3,0,3,0,1,0,001,2022-04-19_10h30.28.789,Digit Span Task,2021.2.3,Linux x86_64,60.06006006,,,,,,,,,,,,,,,,,,,,,
,,,,,,4,0,4,0,1,0,001,2022-04-19_10h30.28.789,Digit Span Task,2021.2.3,Linux x86_64,60.06006006,,,,,,,,,,,,,,,,,,,,,
,,,,,,5,0,5,0,1,0,001,2022-04-19_10h30.28.789,Digit Span Task,2021.2.3,Linux x86_64,60.06006006,,,,,,,,,,,,,,,,,,,,,
,,,,,,6,0,6,0,1,0,001,2022-04-19_10h30.28.789,Digit Span Task,2021.2.3,Linux x86_64,60.06006006,,,,,,,,,,,,,,,,,,,,,
,,,,,,,,,,,0,001,2022-04-19_10h30.28.789,Digit Span Task,2021.2.3,Linux x86_64,60.06006006,2544371,1,0.031501611,-0.421906312,1,0,0,cont_button,0,1,1,1,1,7,2544371,,,,,,
,,,,,,0,0,0,0,1,0,001,2022-04-19_10h30.28.789,Digit Span Task,2021.2.3,Linux x86_64,60.06006006,,,,,,,,,,,,,,,,,,,,,
,,,,,,1,0,1,0,1,0,001,2022-04-19_10h30.28.789,Digit Span Task,2021.2.3,Linux x86_64,60.06006006,,,,,,,,,,,,,,,,,,,,,
,,,,,,2,0,2,0,1,0,001,2022-04-19_10h30.28.789,Digit Span Task,2021.2.3,Linux x86_64,60.06006006,,,,,,,,,,,,,,,,,,,,,
,,,,,,3,0,3,0,1,0,001,2022-04-19_10h30.28.789,Digit Span Task,2021.2.3,Linux x86_64,60.06006006,,,,,,,,,,,,,,,,,,,,,
,,,,,,4,0,4,0,1,0,001,2022-04-19_10h30.28.789,Digit Span Task,2021.2.3,Linux x86_64,60.06006006,,,,,,,,,,,,,,,,,,,,,
,,,,,,5,0,5,0,1,0,001,2022-04-19_10h30.28.789,Digit Span Task,2021.2.3,Linux x86_64,60.06006006,,,,,,,,,,,,,,,,,,,,,
,,,,,,6,0,6,0,1,0,001,2022-04-19_10h30.28.789,Digit Span Task,2021.2.3,Linux x86_64,60.06006006,,,,,,,,,,,,,,,,,,,,,
,,,,,,,,,,,0,001,2022-04-19_10h30.28.789,Digit Span Task,2021.2.3,Linux x86_64,60.06006006,5084379,0,0.001184225,-0.417962551,1,0,0,cont_button,0,2,2,2,1,7,8875085,,,,,,
,,,,,,,,,,,0,001,2022-04-19_10h30.28.789,Digit Span Task,2021.2.3,Linux x86_64,60.06006006,,,,,,,,,,,,,,,,0,4,4,4,1,seven.xlsx
,,,,,,0,0,0,0,1,0,001,2022-04-19_10h30.28.789,Digit Span Task,2021.2.3,Linux x86_64,60.06006006,,,,,,,,,,,,,,,,,,,,,
,,,,,,1,0,1,0,1,0,001,2022-04-19_10h30.28.789,Digit Span Task,2021.2.3,Linux x86_64,60.06006006,,,,,,,,,,,,,,,,,,,,,
,,,,,,2,0,2,0,1,0,001,2022-04-19_10h30.28.789,Digit Span Task,2021.2.3,Linux x86_64,60.06006006,,,,,,,,,,,,,,,,,,,,,
,,,,,,3,0,3,0,1,0,001,2022-04-19_10h30.28.789,Digit Span Task,2021.2.3,Linux x86_64,60.06006006,,,,,,,,,,,,,,,,,,,,,
,,,,,,4,0,4,0,1,0,001,2022-04-19_10h30.28.789,Digit Span Task,2021.2.3,Linux x86_64,60.06006006,,,,,,,,,,,,,,,,,,,,,
,,,,,,5,0,5,0,1,0,001,2022-04-19_10h30.28.789,Digit Span Task,2021.2.3,Linux x86_64,60.06006006,,,,,,,,,,,,,,,,,,,,,
,,,,,,6,0,6,0,1,0,001,2022-04-19_10h30.28.789,Digit Span Task,2021.2.3,Linux x86_64,60.06006006,,,,,,,,,,,,,,,,,,,,,
,,,,,,7,0,7,0,1,0,001,2022-04-19_10h30.28.789,Digit Span Task,2021.2.3,Linux x86_64,60.06006006,,,,,,,,,,,,,,,,,,,,,
,,,,,,,,,,,0,001,2022-04-19_10h30.28.789,Digit Span Task,2021.2.3,Linux x86_64,60.06006006,29446804,0,-0.048830191,-0.374287446,1,0,0,cont_button,0,0,0,0,1,8,46229408,,,,,,
,,,,,,0,0,0,0,1,0,001,2022-04-19_10h30.28.789,Digit Span Task,2021.2.3,Linux x86_64,60.06006006,,,,,,,,,,,,,,,,,,,,,
,,,,,,1,0,1,0,1,0,001,2022-04-19_10h30.28.789,Digit Span Task,2021.2.3,Linux x86_64,60.06006006,,,,,,,,,,,,,,,,,,,,,
,,,,,,2,0,2,0,1,0,001,2022-04-19_10h30.28.789,Digit Span Task,2021.2.3,Linux x86_64,60.06006006,,,,,,,,,,,,,,,,,,,,,
,,,,,,3,0,3,0,1,0,001,2022-04-19_10h30.28.789,Digit Span Task,2021.2.3,Linux x86_64,60.06006006,,,,,,,,,,,,,,,,,,,,,
,,,,,,4,0,4,0,1,0,001,2022-04-19_10h30.28.789,Digit Span Task,2021.2.3,Linux x86_64,60.06006006,,,,,,,,,,,,,,,,,,,,,
,,,,,,5,0,5,0,1,0,001,2022-04-19_10h30.28.789,Digit Span Task,2021.2.3,Linux x86_64,60.06006006,,,,,,,,,,,,,,,,,,,,,
,,,,,,6,0,6,0,1,0,001,2022-04-19_10h30.28.789,Digit Span Task,2021.2.3,Linux x86_64,60.06006006,,,,,,,,,,,,,,,,,,,,,
,,,,,,7,0,7,0,1,0,001,2022-04-19_10h30.28.789,Digit Span Task,2021.2.3,Linux x86_64,60.06006006,,,,,,,,,,,,,,,,,,,,,
,,,,,,,,,,,0,001,2022-04-19_10h30.28.789,Digit Span Task,2021.2.3,Linux x86_64,60.06006006,479802,0,0.031040986,-0.398709218,1,0,0,cont_button,0,1,1,1,1,8,70967882,,,,,,
,,,,,,0,0,0,0,1,0,001,2022-04-19_10h30.28.789,Digit Span Task,2021.2.3,Linux x86_64,60.06006006,,,,,,,,,,,,,,,,,,,,,
,,,,,,1,0,1,0,1,0,001,2022-04-19_10h30.28.789,Digit Span Task,2021.2.3,Linux x86_64,60.06006006,,,,,,,,,,,,,,,,,,,,,
,,,,,,2,0,2,0,1,0,001,2022-04-19_10h30.28.789,Digit Span Task,2021.2.3,Linux x86_64,60.06006006,,,,,,,,,,,,,,,,,,,,,
,,,,,,3,0,3,0,1,0,001,2022-04-19_10h30.28.789,Digit Span Task,2021.2.3,Linux x86_64,60.06006006,,,,,,,,,,,,,,,,,,,,,
,,,,,,4,0,4,0,1,0,001,2022-04-19_10h30.28.789,Digit Span Task,2021.2.3,Linux x86_64,60.06006006,,,,,,,,,,,,,,,,,,,,,
,,,,,,5,0,5,0,1,0,001,2022-04-19_10h30.28.789,Digit Span Task,2021.2.3,Linux x86_64,60.06006006,,,,,,,,,,,,,,,,,,,,,
,,,,,,6,0,6,0,1,0,001,2022-04-19_10h30.28.789,Digit Span Task,2021.2.3,Linux x86_64,60.06006006,,,,,,,,,,,,,,,,,,,,,
,,,,,,7,0,7,0,1,0,001,2022-04-19_10h30.28.789,Digit Span Task,2021.2.3,Linux x86_64,60.06006006,,,,,,,,,,,,,,,,,,,,,
,,,,,,,,,,,0,001,2022-04-19_10h30.28.789,Digit Span Task,2021.2.3,Linux x86_64,60.06006006,47129439,0,-0.015122414,-0.387524446,1,0,0,cont_button,0,2,2,2,1,8,27139320,,,,,,
,,,,,,,,,,,0,001,2022-04-19_10h30.28.789,Digit Span Task,2021.2.3,Linux x86_64,60.06006006,,,,,,,,,,,,,,,,0,5,5,5,1,eight.xlsx
,,,,,,0,0,0,0,1,0,001,2022-04-19_10h30.28.789,Digit Span Task,2021.2.3,Linux x86_64,60.06006006,,,,,,,,,,,,,,,,,,,,,
,,,,,,1,0,1,0,1,0,001,2022-04-19_10h30.28.789,Digit Span Task,2021.2.3,Linux x86_64,60.06006006,,,,,,,,,,,,,,,,,,,,,
,,,,,,2,0,2,0,1,0,001,2022-04-19_10h30.28.789,Digit Span Task,2021.2.3,Linux x86_64,60.06006006,,,,,,,,,,,,,,,,,,,,,
,,,,,,3,0,3,0,1,0,001,2022-04-19_10h30.28.789,Digit Span Task,2021.2.3,Linux x86_64,60.06006006,,,,,,,,,,,,,,,,,,,,,
,,,,,,4,0,4,0,1,0,001,2022-04-19_10h30.28.789,Digit Span Task,2021.2.3,Linux x86_64,60.06006006,,,,,,,,,,,,,,,,,,,,,
,,,,,,5,0,5,0,1,0,001,2022-04-19_10h30.28.789,Digit Span Task,2021.2.3,Linux x86_64,60.06006006,,,,,,,,,,,,,,,,,,,,,
,,,,,,6,0,6,0,1,0,001,2022-04-19_10h30.28.789,Digit Span Task,2021.2.3,Linux x86_64,60.06006006,,,,,,,,,,,,,,,,,,,,,
,,,,,,7,0,7,0,1,0,001,2022-04-19_10h30.28.789,Digit Span Task,2021.2.3,Linux x86_64,60.06006006,,,,,,,,,,,,,,,,,,,,,
,,,,,,8,0,8,0,1,0,001,2022-04-19_10h30.28.789,Digit Span Task,2021.2.3,Linux x86_64,60.06006006,,,,,,,,,,,,,,,,,,,,,
,,,,,,,,,,,0,001,2022-04-19_10h30.28.789,Digit Span Task,2021.2.3,Linux x86_64,60.06006006,47229032,0,0.014902512,-0.395315886,1,0,0,cont_button,0,0,0,0,1,9,368373442,,,,,,
,,,,,,0,0,0,0,1,0,001,2022-04-19_10h30.28.789,Digit Span Task,2021.2.3,Linux x86_64,60.06006006,,,,,,,,,,,,,,,,,,,,,
,,,,,,1,0,1,0,1,0,001,2022-04-19_10h30.28.789,Digit Span Task,2021.2.3,Linux x86_64,60.06006006,,,,,,,,,,,,,,,,,,,,,
,,,,,,2,0,2,0,1,0,001,2022-04-19_10h30.28.789,Digit Span Task,2021.2.3,Linux x86_64,60.06006006,,,,,,,,,,,,,,,,,,,,,
,,,,,,3,0,3,0,1,0,001,2022-04-19_10h30.28.789,Digit Span Task,2021.2.3,Linux x86_64,60.06006006,,,,,,,,,,,,,,,,,,,,,
,,,,,,4,0,4,0,1,0,001,2022-04-19_10h30.28.789,Digit Span Task,2021.2.3,Linux x86_64,60.06006006,,,,,,,,,,,,,,,,,,,,,
,,,,,,5,0,5,0,1,0,001,2022-04-19_10h30.28.789,Digit Span Task,2021.2.3,Linux x86_64,60.06006006,,,,,,,,,,,,,,,,,,,,,
,,,,,,6,0,6,0,1,0,001,2022-04-19_10h30.28.789,Digit Span Task,2021.2.3,Linux x86_64,60.06006006,,,,,,,,,,,,,,,,,,,,,
,,,,,,7,0,7,0,1,0,001,2022-04-19_10h30.28.789,Digit Span Task,2021.2.3,Linux x86_64,60.06006006,,,,,,,,,,,,,,,,,,,,,
,,,,,,8,0,8,0,1,0,001,2022-04-19_10h30.28.789,Digit Span Task,2021.2.3,Linux x86_64,60.06006006,,,,,,,,,,,,,,,,,,,,,
,,,,,,,,,,,0,001,2022-04-19_10h30.28.789,Digit Span Task,2021.2.3,Linux x86_64,60.06006006,270593206,0,-0.021163225,-0.416337808,1,0,0,cont_button,0,1,1,1,1,9,576270919,,,,,,
,,,,,,0,0,0,0,1,0,001,2022-04-19_10h30.28.789,Digit Span Task,2021.2.3,Linux x86_64,60.06006006,,,,,,,,,,,,,,,,,,,,,
,,,,,,1,0,1,0,1,0,001,2022-04-19_10h30.28.789,Digit Span Task,2021.2.3,Linux x86_64,60.06006006,,,,,,,,,,,,,,,,,,,,,
,,,,,,2,0,2,0,1,0,001,2022-04-19_10h30.28.789,Digit Span Task,2021.2.3,Linux x86_64,60.06006006,,,,,,,,,,,,,,,,,,,,,
,,,,,,3,0,3,0,1,0,001,2022-04-19_10h30.28.789,Digit Span Task,2021.2.3,Linux x86_64,60.06006006,,,,,,,,,,,,,,,,,,,,,
,,,,,,4,0,4,0,1,0,001,2022-04-19_10h30.28.789,Digit Span Task,2021.2.3,Linux x86_64,60.06006006,,,,,,,,,,,,,,,,,,,,,
,,,,,,5,0,5,0,1,0,001,2022-04-19_10h30.28.789,Digit Span Task,2021.2.3,Linux x86_64,60.06006006,,,,,,,,,,,,,,,,,,,,,
,,,,,,6,0,6,0,1,0,001,2022-04-19_10h30.28.789,Digit Span Task,2021.2.3,Linux x86_64,60.06006006,,,,,,,,,,,,,,,,,,,,,
,,,,,,7,0,7,0,1,0,001,2022-04-19_10h30.28.789,Digit Span Task,2021.2.3,Linux x86_64,60.06006006,,,,,,,,,,,,,,,,,,,,,
,,,,,,8,0,8,0,1,0,001,2022-04-19_10h30.28.789,Digit Span Task,2021.2.3,Linux x86_64,60.06006006,,,,,,,,,,,,,,,,,,,,,
,,,,,,,,,,,0,001,2022-04-19_10h30.28.789,Digit Span Task,2021.2.3,Linux x86_64,60.06006006,655688975,0,-0.069750945,-0.41864117,1,0,0,cont_button,0,2,2,2,1,9,688655957,,,,,,
,,,,,,,,,,,0,001,2022-04-19_10h30.28.789,Digit Span Task,2021.2.3,Linux x86_64,60.06006006,,,,,,,,,,,,,,,,0,6,6,6,1,nine.xlsx
,,,,,,0,0,0,0,1,0,001,2022-04-19_10h30.28.789,Digit Span Task,2021.2.3,Linux x86_64,60.06006006,,,,,,,,,,,,,,,,,,,,,
,,,,,,1,0,1,0,1,0,001,2022-04-19_10h30.28.789,Digit Span Task,2021.2.3,Linux x86_64,60.06006006,,,,,,,,,,,,,,,,,,,,,
,,,,,,2,0,2,0,1,0,001,2022-04-19_10h30.28.789,Digit Span Task,2021.2.3,Linux x86_64,60.06006006,,,,,,,,,,,,,,,,,,,,,
,,,,,,3,0,3,0,1,0,001,2022-04-19_10h30.28.789,Digit Span Task,2021.2.3,Linux x86_64,60.06006006,,,,,,,,,,,,,,,,,,,,,
,,,,,,4,0,4,0,1,0,001,2022-04-19_10h30.28.789,Digit Span Task,2021.2.3,Linux x86_64,60.06006006,,,,,,,,,,,,,,,,,,,,,
,,,,,,5,0,5,0,1,0,001,2022-04-19_10h30.28.789,Digit Span Task,2021.2.3,Linux x86_64,60.06006006,,,,,,,,,,,,,,,,,,,,,
,,,,,,6,0,6,0,1,0,001,2022-04-19_10h30.28.789,Digit Span Task,2021.2.3,Linux x86_64,60.06006006,,,,,,,,,,,,,,,,,,,,,
,,,,,,7,0,7,0,1,0,001,2022-04-19_10h30.28.789,Digit Span Task,2021.2.3,Linux x86_64,60.06006006,,,,,,,,,,,,,,,,,,,,,
,,,,,,8,0,8,0,1,0,001,2022-04-19_10h30.28.789,Digit Span Task,2021.2.3,Linux x86_64,60.06006006,,,,,,,,,,,,,,,,,,,,,
,,,,,,9,0,9,0,1,0,001,2022-04-19_10h30.28.789,Digit Span Task,2021.2.3,Linux x86_64,60.06006006,,,,,,,,,,,,,,,,,,,,,
,,,,,,,,,,,0,001,2022-04-19_10h30.28.789,Digit Span Task,2021.2.3,Linux x86_64,60.06006006,4973864974,0,-0.008173863,-0.392700831,1,0,0,cont_button,0,0,0,0,1,10,6432900801,,,,,,
,,,,,,0,0,0,0,1,0,001,2022-04-19_10h30.28.789,Digit Span Task,2021.2.3,Linux x86_64,60.06006006,,,,,,,,,,,,,,,,,,,,,
,,,,,,1,0,1,0,1,0,001,2022-04-19_10h30.28.789,Digit Span Task,2021.2.3,Linux x86_64,60.06006006,,,,,,,,,,,,,,,,,,,,,
,,,,,,2,0,2,0,1,0,001,2022-04-19_10h30.28.789,Digit Span Task,2021.2.3,Linux x86_64,60.06006006,,,,,,,,,,,,,,,,,,,,,
,,,,,,3,0,3,0,1,0,001,2022-04-19_10h30.28.789,Digit Span Task,2021.2.3,Linux x86_64,60.06006006,,,,,,,,,,,,,,,,,,,,,
,,,,,,4,0,4,0,1,0,001,2022-04-19_10h30.28.789,Digit Span Task,2021.2.3,Linux x86_64,60.06006006,,,,,,,,,,,,,,,,,,,,,
,,,,,,5,0,5,0,1,0,001,2022-04-19_10h30.28.789,Digit Span Task,2021.2.3,Linux x86_64,60.06006006,,,,,,,,,,,,,,,,,,,,,
,,,,,,6,0,6,0,1,0,001,2022-04-19_10h30.28.789,Digit Span Task,2021.2.3,Linux x86_64,60.06006006,,,,,,,,,,,,,,,,,,,,,
,,,,,,7,0,7,0,1,0,001,2022-04-19_10h30.28.789,Digit Span Task,2021.2.3,Linux x86_64,60.06006006,,,,,,,,,,,,,,,,,,,,,
,,,,,,8,0,8,0,1,0,001,2022-04-19_10h30.28.789,Digit Span Task,2021.2.3,Linux x86_64,60.06006006,,,,,,,,,,,,,,,,,,,,,
,,,,,,9,0,9,0,1,0,001,2022-04-19_10h30.28.789,Digit Span Task,2021.2.3,Linux x86_64,60.06006006,,,,,,,,,,,,,,,,,,,,,
,,,,,,,,,,,0,001,2022-04-19_10h30.28.789,Digit Span Task,2021.2.3,Linux x86_64,60.06006006,4368927,0,-0.087243239,-0.373947461,1,0,0,cont_button,0,1,1,1,1,10,8467348927,,,,,,
,,,,,,0,0,0,0,1,0,001,2022-04-19_10h30.28.789,Digit Span Task,2021.2.3,Linux x86_64,60.06006006,,,,,,,,,,,,,,,,,,,,,
,,,,,,1,0,1,0,1,0,001,2022-04-19_10h30.28.789,Digit Span Task,2021.2.3,Linux x86_64,60.06006006,,,,,,,,,,,,,,,,,,,,,
,,,,,,2,0,2,0,1,0,001,2022-04-19_10h30.28.789,Digit Span Task,2021.2.3,Linux x86_64,60.06006006,,,,,,,,,,,,,,,,,,,,,
,,,,,,3,0,3,0,1,0,001,2022-04-19_10h30.28.789,Digit Span Task,2021.2.3,Linux x86_64,60.06006006,,,,,,,,,,,,,,,,,,,,,
,,,,,,4,0,4,0,1,0,001,2022-04-19_10h30.28.789,Digit Span Task,2021.2.3,Linux x86_64,60.06006006,,,,,,,,,,,,,,,,,,,,,
,,,,,,5,0,5,0,1,0,001,2022-04-19_10h30.28.789,Digit Span Task,2021.2.3,Linux x86_64,60.06006006,,,,,,,,,,,,,,,,,,,,,
,,,,,,6,0,6,0,1,0,001,2022-04-19_10h30.28.789,Digit Span Task,2021.2.3,Linux x86_64,60.06006006,,,,,,,,,,,,,,,,,,,,,
,,,,,,7,0,7,0,1,0,001,2022-04-19_10h30.28.789,Digit Span Task,2021.2.3,Linux x86_64,60.06006006,,,,,,,,,,,,,,,,,,,,,
,,,,,,8,0,8,0,1,0,001,2022-04-19_10h30.28.789,Digit Span Task,2021.2.3,Linux x86_64,60.06006006,,,,,,,,,,,,,,,,,,,,,
,,,,,,9,0,9,0,1,0,001,2022-04-19_10h30.28.789,Digit Span Task,2021.2.3,Linux x86_64,60.06006006,,,,,,,,,,,,,,,,,,,,,
,,,,,,,,,,,0,001,2022-04-19_10h30.28.789,Digit Span Task,2021.2.3,Linux x86_64,60.06006006,49847040,0,-0.058722337,-0.414330482,1,0,0,cont_button,0,2,2,2,1,10,4184946413,,,,,,
,,,,,,,,,,,0,001,2022-04-19_10h30.28.789,Digit Span Task,2021.2.3,Linux x86_64,60.06006006,,,,,,,,,,,,,,,,0,7,7,7,1,ten.xlsx
,,,,,,0,0,0,0,1,0,001,2022-04-19_10h30.28.789,Digit Span Task,2021.2.3,Linux x86_64,60.06006006,,,,,,,,,,,,,,,,,,,,,
,,,,,,1,0,1,0,1,0,001,2022-04-19_10h30.28.789,Digit Span Task,2021.2.3,Linux x86_64,60.06006006,,,,,,,,,,,,,,,,,,,,,
,,,,,,2,0,2,0,1,0,001,2022-04-19_10h30.28.789,Digit Span Task,2021.2.3,Linux x86_64,60.06006006,,,,,,,,,,,,,,,,,,,,,
,,,,,,3,0,3,0,1,0,001,2022-04-19_10h30.28.789,Digit Span Task,2021.2.3,Linux x86_64,60.06006006,,,,,,,,,,,,,,,,,,,,,
,,,,,,4,0,4,0,1,0,001,2022-04-19_10h30.28.789,Digit Span Task,2021.2.3,Linux x86_64,60.06006006,,,,,,,,,,,,,,,,,,,,,
,,,,,,5,0,5,0,1,0,001,2022-04-19_10h30.28.789,Digit Span Task,2021.2.3,Linux x86_64,60.06006006,,,,,,,,,,,,,,,,,,,,,
,,,,,,6,0,6,0,1,0,001,2022-04-19_10h30.28.789,Digit Span Task,2021.2.3,Linux x86_64,60.06006006,,,,,,,,,,,,,,,,,,,,,
,,,,,,7,0,7,0,1,0,001,2022-04-19_10h30.28.789,Digit Span Task,2021.2.3,Linux x86_64,60.06006006,,,,,,,,,,,,,,,,,,,,,
,,,,,,8,0,8,0,1,0,001,2022-04-19_10h30.28.789,Digit Span Task,2021.2.3,Linux x86_64,60.06006006,,,,,,,,,,,,,,,,,,,,,
,,,,,,9,0,9,0,1,0,001,2022-04-19_10h30.28.789,Digit Span Task,2021.2.3,Linux x86_64,60.06006006,,,,,,,,,,,,,,,,,,,,,
,,,,,,10,0,10,0,1,0,001,2022-04-19_10h30.28.789,Digit Span Task,2021.2.3,Linux x86_64,60.06006006,,,,,,,,,,,,,,,,,,,,,
,,,,,,,,,,,0,001,2022-04-19_10h30.28.789,Digit Span Task,2021.2.3,Linux x86_64,60.06006006,47350634504,0,-0.06550161,-0.383999268,1,0,0,cont_button,0,0,0,0,1,11,73290740563,,,,,,
,,,,,,0,0,0,0,1,0,001,2022-04-19_10h30.28.789,Digit Span Task,2021.2.3,Linux x86_64,60.06006006,,,,,,,,,,,,,,,,,,,,,
,,,,,,1,0,1,0,1,0,001,2022-04-19_10h30.28.789,Digit Span Task,2021.2.3,Linux x86_64,60.06006006,,,,,,,,,,,,,,,,,,,,,
,,,,,,2,0,2,0,1,0,001,2022-04-19_10h30.28.789,Digit Span Task,2021.2.3,Linux x86_64,60.06006006,,,,,,,,,,,,,,,,,,,,,
,,,,,,3,0,3,0,1,0,001,2022-04-19_10h30.28.789,Digit Span Task,2021.2.3,Linux x86_64,60.06006006,,,,,,,,,,,,,,,,,,,,,
,,,,,,4,0,4,0,1,0,001,2022-04-19_10h30.28.789,Digit Span Task,2021.2.3,Linux x86_64,60.06006006,,,,,,,,,,,,,,,,,,,,,
,,,,,,5,0,5,0,1,0,001,2022-04-19_10h30.28.789,Digit Span Task,2021.2.3,Linux x86_64,60.06006006,,,,,,,,,,,,,,,,,,,,,
,,,,,,6,0,6,0,1,0,001,2022-04-19_10h30.28.789,Digit Span Task,2021.2.3,Linux x86_64,60.06006006,,,,,,,,,,,,,,,,,,,,,
,,,,,,7,0,7,0,1,0,001,2022-04-19_10h30.28.789,Digit Span Task,2021.2.3,Linux x86_64,60.06006006,,,,,,,,,,,,,,,,,,,,,
,,,,,,8,0,8,0,1,0,001,2022-04-19_10h30.28.789,Digit Span Task,2021.2.3,Linux x86_64,60.06006006,,,,,,,,,,,,,,,,,,,,,
,,,,,,9,0,9,0,1,0,001,2022-04-19_10h30.28.789,Digit Span Task,2021.2.3,Linux x86_64,60.06006006,,,,,,,,,,,,,,,,,,,,,
,,,,,,10,0,10,0,1,0,001,2022-04-19_10h30.28.789,Digit Span Task,2021.2.3,Linux x86_64,60.06006006,,,,,,,,,,,,,,,,,,,,,
,,,,,,,,,,,0,001,2022-04-19_10h30.28.789,Digit Span Task,2021.2.3,Linux x86_64,60.06006006,607980405,0,-0.049937487,-0.397785266,1,0,0,cont_button,0,1,1,1,1,11,74948772224,,,,,,
,,,,,,0,0,0,0,1,0,001,2022-04-19_10h30.28.789,Digit Span Task,2021.2.3,Linux x86_64,60.06006006,,,,,,,,,,,,,,,,,,,,,
,,,,,,1,0,1,0,1,0,001,2022-04-19_10h30.28.789,Digit Span Task,2021.2.3,Linux x86_64,60.06006006,,,,,,,,,,,,,,,,,,,,,
,,,,,,2,0,2,0,1,0,001,2022-04-19_10h30.28.789,Digit Span Task,2021.2.3,Linux x86_64,60.06006006,,,,,,,,,,,,,,,,,,,,,
,,,,,,3,0,3,0,1,0,001,2022-04-19_10h30.28.789,Digit Span Task,2021.2.3,Linux x86_64,60.06006006,,,,,,,,,,,,,,,,,,,,,
,,,,,,4,0,4,0,1,0,001,2022-04-19_10h30.28.789,Digit Span Task,2021.2.3,Linux x86_64,60.06006006,,,,,,,,,,,,,,,,,,,,,
,,,,,,5,0,5,0,1,0,001,2022-04-19_10h30.28.789,Digit Span Task,2021.2.3,Linux x86_64,60.06006006,,,,,,,,,,,,,,,,,,,,,
,,,,,,6,0,6,0,1,0,001,2022-04-19_10h30.28.789,Digit Span Task,2021.2.3,Linux x86_64,60.06006006,,,,,,,,,,,,,,,,,,,,,
,,,,,,7,0,7,0,1,0,001,2022-04-19_10h30.28.789,Digit Span Task,2021.2.3,Linux x86_64,60.06006006,,,,,,,,,,,,,,,,,,,,,
,,,,,,8,0,8,0,1,0,001,2022-04-19_10h30.28.789,Digit Span Task,2021.2.3,Linux x86_64,60.06006006,,,,,,,,,,,,,,,,,,,,,
,,,,,,9,0,9,0,1,0,001,2022-04-19_10h30.28.789,Digit Span Task,2021.2.3,Linux x86_64,60.06006006,,,,,,,,,,,,,,,,,,,,,
,,,,,,10,0,10,0,1,0,001,2022-04-19_10h30.28.789,Digit Span Task,2021.2.3,Linux x86_64,60.06006006,,,,,,,,,,,,,,,,,,,,,
,,,,,,,,,,,0,001,2022-04-19_10h30.28.789,Digit Span Task,2021.2.3,Linux x86_64,60.06006006,98726687705,0,0.039874633,-0.397340695,1,0,0,cont_button,0,2,2,2,1,11,97084622072,,,,,,
,,,,,,,,,,,0,001,2022-04-19_10h30.28.789,Digit Span Task,2021.2.3,Linux x86_64,60.06006006,,,,,,,,,,,,,,,,0,8,8,8,1,eleven.xlsx
,,,,,,0,0,0,0,1,0,001,2022-04-19_10h30.28.789,Digit Span Task,2021.2.3,Linux x86_64,60.06006006,,,,,,,,,,,,,,,,,,,,,
,,,,,,1,0,1,0,1,0,001,2022-04-19_10h30.28.789,Digit Span Task,2021.2.3,Linux x86_64,60.06006006,,,,,,,,,,,,,,,,,,,,,
,,,,,,2,0,2,0,1,0,001,2022-04-19_10h30.28.789,Digit Span Task,2021.2.3,Linux x86_64,60.06006006,,,,,,,,,,,,,,,,,,,,,
,,,,,,3,0,3,0,1,0,001,2022-04-19_10h30.28.789,Digit Span Task,2021.2.3,Linux x86_64,60.06006006,,,,,,,,,,,,,,,,,,,,,
,,,,,,4,0,4,0,1,0,001,2022-04-19_10h30.28.789,Digit Span Task,2021.2.3,Linux x86_64,60.06006006,,,,,,,,,,,,,,,,,,,,,
,,,,,,5,0,5,0,1,0,001,2022-04-19_10h30.28.789,Digit Span Task,2021.2.3,Linux x86_64,60.06006006,,,,,,,,,,,,,,,,,,,,,
,,,,,,6,0,6,0,1,0,001,2022-04-19_10h30.28.789,Digit Span Task,2021.2.3,Linux x86_64,60.06006006,,,,,,,,,,,,,,,,,,,,,
,,,,,,7,0,7,0,1,0,001,2022-04-19_10h30.28.789,Digit Span Task,2021.2.3,Linux x86_64,60.06006006,,,,,,,,,,,,,,,,,,,,,
,,,,,,8,0,8,0,1,0,001,2022-04-19_10h30.28.789,Digit Span Task,2021.2.3,Linux x86_64,60.06006006,,,,,,,,,,,,,,,,,,,,,
,,,,,,9,0,9,0,1,0,001,2022-04-19_10h30.28.789,Digit Span Task,2021.2.3,Linux x86_64,60.06006006,,,,,,,,,,,,,,,,,,,,,
,,,,,,10,0,10,0,1,0,001,2022-04-19_10h30.28.789,Digit Span Task,2021.2.3,Linux x86_64,60.06006006,,,,,,,,,,,,,,,,,,,,,
,,,,,,11,0,11,0,1,0,001,2022-04-19_10h30.28.789,Digit Span Task,2021.2.3,Linux x86_64,60.06006006,,,,,,,,,,,,,,,,,,,,,
,,,,,,,,,,,0,001,2022-04-19_10h30.28.789,Digit Span Task,2021.2.3,Linux x86_64,60.06006006,6079802345,0,-0.011187951,-0.40326945,1,0,0,cont_button,0,0,0,0,1,12,6.81346E+11,,,,,,
,,,,,,0,0,0,0,1,0,001,2022-04-19_10h30.28.789,Digit Span Task,2021.2.3,Linux x86_64,60.06006006,,,,,,,,,,,,,,,,,,,,,
,,,,,,1,0,1,0,1,0,001,2022-04-19_10h30.28.789,Digit Span Task,2021.2.3,Linux x86_64,60.06006006,,,,,,,,,,,,,,,,,,,,,
,,,,,,2,0,2,0,1,0,001,2022-04-19_10h30.28.789,Digit Span Task,2021.2.3,Linux x86_64,60.06006006,,,,,,,,,,,,,,,,,,,,,
,,,,,,3,0,3,0,1,0,001,2022-04-19_10h30.28.789,Digit Span Task,2021.2.3,Linux x86_64,60.06006006,,,,,,,,,,,,,,,,,,,,,
,,,,,,4,0,4,0,1,0,001,2022-04-19_10h30.28.789,Digit Span Task,2021.2.3,Linux x86_64,60.06006006,,,,,,,,,,,,,,,,,,,,,
,,,,,,5,0,5,0,1,0,001,2022-04-19_10h30.28.789,Digit Span Task,2021.2.3,Linux x86_64,60.06006006,,,,,,,,,,,,,,,,,,,,,
,,,,,,6,0,6,0,1,0,001,2022-04-19_10h30.28.789,Digit Span Task,2021.2.3,Linux x86_64,60.06006006,,,,,,,,,,,,,,,,,,,,,
,,,,,,7,0,7,0,1,0,001,2022-04-19_10h30.28.789,Digit Span Task,2021.2.3,Linux x86_64,60.06006006,,,,,,,,,,,,,,,,,,,,,
,,,,,,8,0,8,0,1,0,001,2022-04-19_10h30.28.789,Digit Span Task,2021.2.3,Linux x86_64,60.06006006,,,,,,,,,,,,,,,,,,,,,
,,,,,,9,0,9,0,1,0,001,2022-04-19_10h30.28.789,Digit Span Task,2021.2.3,Linux x86_64,60.06006006,,,,,,,,,,,,,,,,,,,,,
,,,,,,10,0,10,0,1,0,001,2022-04-19_10h30.28.789,Digit Span Task,2021.2.3,Linux x86_64,60.06006006,,,,,,,,,,,,,,,,,,,,,
,,,,,,11,0,11,0,1,0,001,2022-04-19_10h30.28.789,Digit Span Task,2021.2.3,Linux x86_64,60.06006006,,,,,,,,,,,,,,,,,,,,,
,,,,,,,,,,,0,001,2022-04-19_10h30.28.789,Digit Span Task,2021.2.3,Linux x86_64,60.06006006,56731,0,-0.046482404,-0.383050203,1,0,0,cont_button,0,1,1,1,1,12,8.7238E+11,,,,,,
,,,,,,0,0,0,0,1,0,001,2022-04-19_10h30.28.789,Digit Span Task,2021.2.3,Linux x86_64,60.06006006,,,,,,,,,,,,,,,,,,,,,
,,,,,,1,0,1,0,1,0,001,2022-04-19_10h30.28.789,Digit Span Task,2021.2.3,Linux x86_64,60.06006006,,,,,,,,,,,,,,,,,,,,,
,,,,,,2,0,2,0,1,0,001,2022-04-19_10h30.28.789,Digit Span Task,2021.2.3,Linux x86_64,60.06006006,,,,,,,,,,,,,,,,,,,,,
,,,,,,3,0,3,0,1,0,001,2022-04-19_10h30.28.789,Digit Span Task,2021.2.3,Linux x86_64,60.06006006,,,,,,,,,,,,,,,,,,,,,
,,,,,,4,0,4,0,1,0,001,2022-04-19_10h30.28.789,Digit Span Task,2021.2.3,Linux x86_64,60.06006006,,,,,,,,,,,,,,,,,,,,,
,,,,,,5,0,5,0,1,0,001,2022-04-19_10h30.28.789,Digit Span Task,2021.2.3,Linux x86_64,60.06006006,,,,,,,,,,,,,,,,,,,,,
,,,,,,6,0,6,0,1,0,001,2022-04-19_10h30.28.789,Digit Span Task,2021.2.3,Linux x86_64,60.06006006,,,,,,,,,,,,,,,,,,,,,
,,,,,,7,0,7,0,1,0,001,2022-04-19_10h30.28.789,Digit Span Task,2021.2.3,Linux x86_64,60.06006006,,,,,,,,,,,,,,,,,,,,,
,,,,,,8,0,8,0,1,0,001,2022-04-19_10h30.28.789,Digit Span Task,2021.2.3,Linux x86_64,60.06006006,,,,,,,,,,,,,,,,,,,,,
,,,,,,9,0,9,0,1,0,001,2022-04-19_10h30.28.789,Digit Span Task,2021.2.3,Linux x86_64,60.06006006,,,,,,,,,,,,,,,,,,,,,
,,,,,,10,0,10,0,1,0,001,2022-04-19_10h30.28.789,Digit Span Task,2021.2.3,Linux x86_64,60.06006006,,,,,,,,,,,,,,,,,,,,,
,,,,,,11,0,11,0,1,0,001,2022-04-19_10h30.28.789,Digit Span Task,2021.2.3,Linux x86_64,60.06006006,,,,,,,,,,,,,,,,,,,,,
,,,,,,,,,,,0,001,2022-04-19_10h30.28.789,Digit Span Task,2021.2.3,Linux x86_64,60.06006006,270145678,0,-0.021904786,-0.417346954,1,0,0,cont_button,0,2,2,2,1,12,2.41072E+11,,,,,,
,,,,,,,,,,,0,001,2022-04-19_10h30.28.789,Digit Span Task,2021.2.3,Linux x86_64,60.06006006,,,,,,,,,,,,,,,,0,9,9,9,1,twelve.xlsx
,,,,,,0,0,0,0,1,0,001,2022-04-19_10h30.28.789,Digit Span Task,2021.2.3,Linux x86_64,60.06006006,,,,,,,,,,,,,,,,,,,,,
,,,,,,1,0,1,0,1,0,001,2022-04-19_10h30.28.789,Digit Span Task,2021.2.3,Linux x86_64,60.06006006,,,,,,,,,,,,,,,,,,,,,
,,,,,,2,0,2,0,1,0,001,2022-04-19_10h30.28.789,Digit Span Task,2021.2.3,Linux x86_64,60.06006006,,,,,,,,,,,,,,,,,,,,,
,,,,,,,,,,,0,001,2022-04-19_10h30.28.789,Digit Span Task,2021.2.3,Linux x86_64,60.06006006,217,1,0.025626977,-0.379788955,1,0,0,cont_button,0,0,0,0,1,3,217,,,,,,
,,,,,,0,0,0,0,1,0,001,2022-04-19_10h30.28.789,Digit Span Task,2021.2.3,Linux x86_64,60.06006006,,,,,,,,,,,,,,,,,,,,,
,,,,,,1,0,1,0,1,0,001,2022-04-19_10h30.28.789,Digit Span Task,2021.2.3,Linux x86_64,60.06006006,,,,,,,,,,,,,,,,,,,,,
,,,,,,2,0,2,0,1,0,001,2022-04-19_10h30.28.789,Digit Span Task,2021.2.3,Linux x86_64,60.06006006,,,,,,,,,,,,,,,,,,,,,
,,,,,,,,,,,0,001,2022-04-19_10h30.28.789,Digit Span Task,2021.2.3,Linux x86_64,60.06006006,486,1,0.081467867,-0.410612663,1,0,0,cont_button,0,1,1,1,1,3,486,,,,,,
,,,,,,0,0,0,0,1,0,001,2022-04-19_10h30.28.789,Digit Span Task,2021.2.3,Linux x86_64,60.06006006,,,,,,,,,,,,,,,,,,,,,
,,,,,,1,0,1,0,1,0,001,2022-04-19_10h30.28.789,Digit Span Task,2021.2.3,Linux x86_64,60.06006006,,,,,,,,,,,,,,,,,,,,,
,,,,,,2,0,2,0,1,0,001,2022-04-19_10h30.28.789,Digit Span Task,2021.2.3,Linux x86_64,60.06006006,,,,,,,,,,,,,,,,,,,,,
,,,,,,,,,,,0,001,2022-04-19_10h30.28.789,Digit Span Task,2021.2.3,Linux x86_64,60.06006006,760,1,0.074031512,-0.399799665,1,0,0,cont_button,0,2,2,2,1,3,760,,,,,,
,,,,,,,,,,,0,001,2022-04-19_10h30.28.789,Digit Span Task,2021.2.3,Linux x86_64,60.06006006,,,,,,,,,,,,,,,,1,0,10,0,1,three.xlsx
,,,,,,0,0,0,0,1,0,001,2022-04-19_10h30.28.789,Digit Span Task,2021.2.3,Linux x86_64,60.06006006,,,,,,,,,,,,,,,,,,,,,
,,,,,,1,0,1,0,1,0,001,2022-04-19_10h30.28.789,Digit Span Task,2021.2.3,Linux x86_64,60.06006006,,,,,,,,,,,,,,,,,,,,,
,,,,,,2,0,2,0,1,0,001,2022-04-19_10h30.28.789,Digit Span Task,2021.2.3,Linux x86_64,60.06006006,,,,,,,,,,,,,,,,,,,,,
,,,,,,3,0,3,0,1,0,001,2022-04-19_10h30.28.789,Digit Span Task,2021.2.3,Linux x86_64,60.06006006,,,,,,,,,,,,,,,,,,,,,
,,,,,,,,,,,0,001,2022-04-19_10h30.28.789,Digit Span Task,2021.2.3,Linux x86_64,60.06006006,3141,1,0.040227175,-0.38276275,1,0,0,cont_button,0,0,0,0,1,4,3141,,,,,,
,,,,,,0,0,0,0,1,0,001,2022-04-19_10h30.28.789,Digit Span Task,2021.2.3,Linux x86_64,60.06006006,,,,,,,,,,,,,,,,,,,,,
,,,,,,1,0,1,0,1,0,001,2022-04-19_10h30.28.789,Digit Span Task,2021.2.3,Linux x86_64,60.06006006,,,,,,,,,,,,,,,,,,,,,
,,,,,,2,0,2,0,1,0,001,2022-04-19_10h30.28.789,Digit Span Task,2021.2.3,Linux x86_64,60.06006006,,,,,,,,,,,,,,,,,,,,,
,,,,,,3,0,3,0,1,0,001,2022-04-19_10h30.28.789,Digit Span Task,2021.2.3,Linux x86_64,60.06006006,,,,,,,,,,,,,,,,,,,,,
,,,,,,,,,,,0,001,2022-04-19_10h30.28.789,Digit Span Task,2021.2.3,Linux x86_64,60.06006006,6351,1,0.029222806,-0.409881989,1,0,0,cont_button,0,1,1,1,1,4,6351,,,,,,
,,,,,,0,0,0,0,1,0,001,2022-04-19_10h30.28.789,Digit Span Task,2021.2.3,Linux x86_64,60.06006006,,,,,,,,,,,,,,,,,,,,,
,,,,,,1,0,1,0,1,0,001,2022-04-19_10h30.28.789,Digit Span Task,2021.2.3,Linux x86_64,60.06006006,,,,,,,,,,,,,,,,,,,,,
,,,,,,2,0,2,0,1,0,001,2022-04-19_10h30.28.789,Digit Span Task,2021.2.3,Linux x86_64,60.06006006,,,,,,,,,,,,,,,,,,,,,
,,,,,,3,0,3,0,1,0,001,2022-04-19_10h30.28.789,Digit Span Task,2021.2.3,Linux x86_64,60.06006006,,,,,,,,,,,,,,,,,,,,,
,,,,,,,,,,,0,001,2022-04-19_10h30.28.789,Digit Span Task,2021.2.3,Linux x86_64,60.06006006,2391,1,-0.012047609,-0.411400716,1,0,0,cont_button,0,2,2,2,1,4,2391,,,,,,
,,,,,,,,,,,0,001,2022-04-19_10h30.28.789,Digit Span Task,2021.2.3,Linux x86_64,60.06006006,,,,,,,,,,,,,,,,1,1,11,1,1,four.xlsx
,,,,,,0,0,0,0,1,0,001,2022-04-19_10h30.28.789,Digit Span Task,2021.2.3,Linux x86_64,60.06006006,,,,,,,,,,,,,,,,,,,,,
,,,,,,1,0,1,0,1,0,001,2022-04-19_10h30.28.789,Digit Span Task,2021.2.3,Linux x86_64,60.06006006,,,,,,,,,,,,,,,,,,,,,
,,,,,,2,0,2,0,1,0,001,2022-04-19_10h30.28.789,Digit Span Task,2021.2.3,Linux x86_64,60.06006006,,,,,,,,,,,,,,,,,,,,,
,,,,,,3,0,3,0,1,0,001,2022-04-19_10h30.28.789,Digit Span Task,2021.2.3,Linux x86_64,60.06006006,,,,,,,,,,,,,,,,,,,,,
,,,,,,4,0,4,0,1,0,001,2022-04-19_10h30.28.789,Digit Span Task,2021.2.3,Linux x86_64,60.06006006,,,,,,,,,,,,,,,,,,,,,
