start_mouse.x,start_mouse.y,start_mouse.leftButton,start_mouse.midButton,start_mouse.rightButton,start_mouse.clicked_name,digitLoop.thisRepN,digitLoop.thisTrialN,digitLoop.thisN,digitLoop.thisIndex,digitLoop.ran,participant,session,date,expName,psychopyVersion,OS,frameRate,textbox.text,correct,mouse.x,mouse.y,mouse.leftButton,mouse.midButton,mouse.rightButton,mouse.clicked_name,trials.thisRepN,trials.thisTrialN,trials.thisN,trials.thisIndex,trials.ran,digitSpan,digits,blocks.thisRepN,blocks.thisTrialN,blocks.thisN,blocks.thisIndex,blocks.ran,condition_file
0.103496393,-0.386066198,1,0,0,cont_button,0,0,0,0,1,0,001,2022-04-28_14h53.59.912,Digit Span Task,2021.2.3,Linux x86_64,60.0528465,,,,,,,,,,,,,,,,,,,,,
,,,,,,1,0,1,0,1,0,001,2022-04-28_14h53.59.912,Digit Span Task,2021.2.3,Linux x86_64,60.0528465,,,,,,,,,,,,,,,,,,,,,
,,,,,,2,0,2,0,1,0,001,2022-04-28_14h53.59.912,Digit Span Task,2021.2.3,Linux x86_64,60.0528465,,,,,,,,,,,,,,,,,,,,,
,,,,,,,,,,,0,001,2022-04-28_14h53.59.912,Digit Span Task,2021.2.3,Linux x86_64,60.0528465,217,1,0.047377904,-0.424514691,1,0,0,cont_button,0,0,0,0,1,3,217,,,,,,
,,,,,,0,0,0,0,1,0,001,2022-04-28_14h53.59.912,Digit Span Task,2021.2.3,Linux x86_64,60.0528465,,,,,,,,,,,,,,,,,,,,,
,,,,,,1,0,1,0,1,0,001,2022-04-28_14h53.59.912,Digit Span Task,2021.2.3,Linux x86_64,60.0528465,,,,,,,,,,,,,,,,,,,,,
,,,,,,2,0,2,0,1,0,001,2022-04-28_14h53.59.912,Digit Span Task,2021.2.3,Linux x86_64,60.0528465,,,,,,,,,,,,,,,,,,,,,
,,,,,,,,,,,0,001,2022-04-28_14h53.59.912,Digit Span Task,2021.2.3,Linux x86_64,60.0528465,486,1,0.043538491,-0.390969435,1,0,0,cont_button,0,1,1,1,1,3,486,,,,,,
,,,,,,0,0,0,0,1,0,001,2022-04-28_14h53.59.912,Digit Span Task,2021.2.3,Linux x86_64,60.0528465,,,,,,,,,,,,,,,,,,,,,
,,,,,,1,0,1,0,1,0,001,2022-04-28_14h53.59.912,Digit Span Task,2021.2.3,Linux x86_64,60.0528465,,,,,,,,,,,,,,,,,,,,,
,,,,,,2,0,2,0,1,0,001,2022-04-28_14h53.59.912,Digit Span Task,2021.2.3,Linux x86_64,60.0528465,,,,,,,,,,,,,,,,,,,,,
,,,,,,,,,,,0,001,2022-04-28_14h53.59.912,Digit Span Task,2021.2.3,Linux x86_64,60.0528465,760,1,0.043538491,-0.390969435,1,0,0,cont_button,0,2,2,2,1,3,760,,,,,,
,,,,,,,,,,,0,001,2022-04-28_14h53.59.912,Digit Span Task,2021.2.3,Linux x86_64,60.0528465,,,,,,,,,,,,,,,,0,0,0,0,1,three.xlsx
,,,,,,0,0,0,0,1,0,001,2022-04-28_14h53.59.912,Digit Span Task,2021.2.3,Linux x86_64,60.0528465,,,,,,,,,,,,,,,,,,,,,
,,,,,,1,0,1,0,1,0,001,2022-04-28_14h53.59.912,Digit Span Task,2021.2.3,Linux x86_64,60.0528465,,,,,,,,,,,,,,,,,,,,,
,,,,,,2,0,2,0,1,0,001,2022-04-28_14h53.59.912,Digit Span Task,2021.2.3,Linux x86_64,60.0528465,,,,,,,,,,,,,,,,,,,,,
,,,,,,3,0,3,0,1,0,001,2022-04-28_14h53.59.912,Digit Span Task,2021.2.3,Linux x86_64,60.0528465,,,,,,,,,,,,,,,,,,,,,
,,,,,,,,,,,0,001,2022-04-28_14h53.59.912,Digit Span Task,2021.2.3,Linux x86_64,60.0528465,3141,1,0.043538491,-0.390969435,1,0,0,cont_button,0,0,0,0,1,4,3141,,,,,,
,,,,,,0,0,0,0,1,0,001,2022-04-28_14h53.59.912,Digit Span Task,2021.2.3,Linux x86_64,60.0528465,,,,,,,,,,,,,,,,,,,,,
,,,,,,1,0,1,0,1,0,001,2022-04-28_14h53.59.912,Digit Span Task,2021.2.3,Linux x86_64,60.0528465,,,,,,,,,,,,,,,,,,,,,
,,,,,,2,0,2,0,1,0,001,2022-04-28_14h53.59.912,Digit Span Task,2021.2.3,Linux x86_64,60.0528465,,,,,,,,,,,,,,,,,,,,,
,,,,,,3,0,3,0,1,0,001,2022-04-28_14h53.59.912,Digit Span Task,2021.2.3,Linux x86_64,60.0528465,,,,,,,,,,,,,,,,,,,,,
,,,,,,,,,,,0,001,2022-04-28_14h53.59.912,Digit Span Task,2021.2.3,Linux x86_64,60.0528465,6351,1,0.043538491,-0.390969435,1,0,0,cont_button,0,1,1,1,1,4,6351,,,,,,
,,,,,,0,0,0,0,1,0,001,2022-04-28_14h53.59.912,Digit Span Task,2021.2.3,Linux x86_64,60.0528465,,,,,,,,,,,,,,,,,,,,,
,,,,,,1,0,1,0,1,0,001,2022-04-28_14h53.59.912,Digit Span Task,2021.2.3,Linux x86_64,60.0528465,,,,,,,,,,,,,,,,,,,,,
,,,,,,2,0,2,0,1,0,001,2022-04-28_14h53.59.912,Digit Span Task,2021.2.3,Linux x86_64,60.0528465,,,,,,,,,,,,,,,,,,,,,
,,,,,,3,0,3,0,1,0,001,2022-04-28_14h53.59.912,Digit Span Task,2021.2.3,Linux x86_64,60.0528465,,,,,,,,,,,,,,,,,,,,,
,,,,,,,,,,,0,001,2022-04-28_14h53.59.912,Digit Span Task,2021.2.3,Linux x86_64,60.0528465,2391,1,0.043538491,-0.390969435,1,0,0,cont_button,0,2,2,2,1,4,2391,,,,,,
,,,,,,,,,,,0,001,2022-04-28_14h53.59.912,Digit Span Task,2021.2.3,Linux x86_64,60.0528465,,,,,,,,,,,,,,,,0,1,1,1,1,four.xlsx
,,,,,,0,0,0,0,1,0,001,2022-04-28_14h53.59.912,Digit Span Task,2021.2.3,Linux x86_64,60.0528465,,,,,,,,,,,,,,,,,,,,,
,,,,,,1,0,1,0,1,0,001,2022-04-28_14h53.59.912,Digit Span Task,2021.2.3,Linux x86_64,60.0528465,,,,,,,,,,,,,,,,,,,,,
,,,,,,2,0,2,0,1,0,001,2022-04-28_14h53.59.912,Digit Span Task,2021.2.3,Linux x86_64,60.0528465,,,,,,,,,,,,,,,,,,,,,
,,,,,,3,0,3,0,1,0,001,2022-04-28_14h53.59.912,Digit Span Task,2021.2.3,Linux x86_64,60.0528465,,,,,,,,,,,,,,,,,,,,,
,,,,,,4,0,4,0,1,0,001,2022-04-28_14h53.59.912,Digit Span Task,2021.2.3,Linux x86_64,60.0528465,,,,,,,,,,,,,,,,,,,,,
,,,,,,,,,,,0,001,2022-04-28_14h53.59.912,Digit Span Task,2021.2.3,Linux x86_64,60.0528465,14932,1,0.043538491,-0.390969435,1,0,0,cont_button,0,0,0,0,1,5,14932,,,,,,
,,,,,,0,0,0,0,1,0,001,2022-04-28_14h53.59.912,Digit Span Task,2021.2.3,Linux x86_64,60.0528465,,,,,,,,,,,,,,,,,,,,,
,,,,,,1,0,1,0,1,0,001,2022-04-28_14h53.59.912,Digit Span Task,2021.2.3,Linux x86_64,60.0528465,,,,,,,,,,,,,,,,,,,,,
,,,,,,2,0,2,0,1,0,001,2022-04-28_14h53.59.912,Digit Span Task,2021.2.3,Linux x86_64,60.0528465,,,,,,,,,,,,,,,,,,,,,
,,,,,,3,0,3,0,1,0,001,2022-04-28_14h53.59.912,Digit Span Task,2021.2.3,Linux x86_64,60.0528465,,,,,,,,,,,,,,,,,,,,,
,,,,,,4,0,4,0,1,0,001,2022-04-28_14h53.59.912,Digit Span Task,2021.2.3,Linux x86_64,60.0528465,,,,,,,,,,,,,,,,,,,,,
,,,,,,,,,,,0,001,2022-04-28_14h53.59.912,Digit Span Task,2021.2.3,Linux x86_64,60.0528465,10646,1,0.043538491,-0.390969435,1,0,0,cont_button,0,1,1,1,1,5,10646,,,,,,
,,,,,,0,0,0,0,1,0,001,2022-04-28_14h53.59.912,Digit Span Task,2021.2.3,Linux x86_64,60.0528465,,,,,,,,,,,,,,,,,,,,,
,,,,,,1,0,1,0,1,0,001,2022-04-28_14h53.59.912,Digit Span Task,2021.2.3,Linux x86_64,60.0528465,,,,,,,,,,,,,,,,,,,,,
,,,,,,2,0,2,0,1,0,001,2022-04-28_14h53.59.912,Digit Span Task,2021.2.3,Linux x86_64,60.0528465,,,,,,,,,,,,,,,,,,,,,
,,,,,,3,0,3,0,1,0,001,2022-04-28_14h53.59.912,Digit Span Task,2021.2.3,Linux x86_64,60.0528465,,,,,,,,,,,,,,,,,,,,,
,,,,,,4,0,4,0,1,0,001,2022-04-28_14h53.59.912,Digit Span Task,2021.2.3,Linux x86_64,60.0528465,,,,,,,,,,,,,,,,,,,,,
,,,,,,,,,,,0,001,2022-04-28_14h53.59.912,Digit Span Task,2021.2.3,Linux x86_64,60.0528465,74832,1,0.043538491,-0.390969435,1,0,0,cont_button,0,2,2,2,1,5,74832,,,,,,
,,,,,,,,,,,0,001,2022-04-28_14h53.59.912,Digit Span Task,2021.2.3,Linux x86_64,60.0528465,,,,,,,,,,,,,,,,0,2,2,2,1,five.xlsx
,,,,,,0,0,0,0,1,0,001,2022-04-28_14h53.59.912,Digit Span Task,2021.2.3,Linux x86_64,60.0528465,,,,,,,,,,,,,,,,,,,,,
,,,,,,1,0,1,0,1,0,001,2022-04-28_14h53.59.912,Digit Span Task,2021.2.3,Linux x86_64,60.0528465,,,,,,,,,,,,,,,,,,,,,
,,,,,,2,0,2,0,1,0,001,2022-04-28_14h53.59.912,Digit Span Task,2021.2.3,Linux x86_64,60.0528465,,,,,,,,,,,,,,,,,,,,,
,,,,,,3,0,3,0,1,0,001,2022-04-28_14h53.59.912,Digit Span Task,2021.2.3,Linux x86_64,60.0528465,,,,,,,,,,,,,,,,,,,,,
,,,,,,4,0,4,0,1,0,001,2022-04-28_14h53.59.912,Digit Span Task,2021.2.3,Linux x86_64,60.0528465,,,,,,,,,,,,,,,,,,,,,
,,,,,,5,0,5,0,1,0,001,2022-04-28_14h53.59.912,Digit Span Task,2021.2.3,Linux x86_64,60.0528465,,,,,,,,,,,,,,,,,,,,,
,,,,,,,,,,,0,001,2022-04-28_14h53.59.912,Digit Span Task,2021.2.3,Linux x86_64,60.0528465,934648,1,0.043538491,-0.390969435,1,0,0,cont_button,0,0,0,0,1,6,934648,,,,,,
,,,,,,0,0,0,0,1,0,001,2022-04-28_14h53.59.912,Digit Span Task,2021.2.3,Linux x86_64,60.0528465,,,,,,,,,,,,,,,,,,,,,
,,,,,,1,0,1,0,1,0,001,2022-04-28_14h53.59.912,Digit Span Task,2021.2.3,Linux x86_64,60.0528465,,,,,,,,,,,,,,,,,,,,,
,,,,,,2,0,2,0,1,0,001,2022-04-28_14h53.59.912,Digit Span Task,2021.2.3,Linux x86_64,60.0528465,,,,,,,,,,,,,,,,,,,,,
,,,,,,3,0,3,0,1,0,001,2022-04-28_14h53.59.912,Digit Span Task,2021.2.3,Linux x86_64,60.0528465,,,,,,,,,,,,,,,,,,,,,
,,,,,,4,0,4,0,1,0,001,2022-04-28_14h53.59.912,Digit Span Task,2021.2.3,Linux x86_64,60.0528465,,,,,,,,,,,,,,,,,,,,,
,,,,,,5,0,5,0,1,0,001,2022-04-28_14h53.59.912,Digit Span Task,2021.2.3,Linux x86_64,60.0528465,,,,,,,,,,,,,,,,,,,,,
,,,,,,,,,,,0,001,2022-04-28_14h53.59.912,Digit Span Task,2021.2.3,Linux x86_64,60.0528465,179390,1,0.043538491,-0.390969435,1,0,0,cont_button,0,1,1,1,1,6,179390,,,,,,
,,,,,,0,0,0,0,1,0,001,2022-04-28_14h53.59.912,Digit Span Task,2021.2.3,Linux x86_64,60.0528465,,,,,,,,,,,,,,,,,,,,,
,,,,,,1,0,1,0,1,0,001,2022-04-28_14h53.59.912,Digit Span Task,2021.2.3,Linux x86_64,60.0528465,,,,,,,,,,,,,,,,,,,,,
,,,,,,2,0,2,0,1,0,001,2022-04-28_14h53.59.912,Digit Span Task,2021.2.3,Linux x86_64,60.0528465,,,,,,,,,,,,,,,,,,,,,
,,,,,,3,0,3,0,1,0,001,2022-04-28_14h53.59.912,Digit Span Task,2021.2.3,Linux x86_64,60.0528465,,,,,,,,,,,,,,,,,,,,,
,,,,,,4,0,4,0,1,0,001,2022-04-28_14h53.59.912,Digit Span Task,2021.2.3,Linux x86_64,60.0528465,,,,,,,,,,,,,,,,,,,,,
,,,,,,5,0,5,0,1,0,001,2022-04-28_14h53.59.912,Digit Span Task,2021.2.3,Linux x86_64,60.0528465,,,,,,,,,,,,,,,,,,,,,
,,,,,,,,,,,0,001,2022-04-28_14h53.59.912,Digit Span Task,2021.2.3,Linux x86_64,60.0528465,408288,1,0.043538491,-0.390969435,1,0,0,cont_button,0,2,2,2,1,6,408288,,,,,,
,,,,,,,,,,,0,001,2022-04-28_14h53.59.912,Digit Span Task,2021.2.3,Linux x86_64,60.0528465,,,,,,,,,,,,,,,,0,3,3,3,1,six.xlsx
,,,,,,0,0,0,0,1,0,001,2022-04-28_14h53.59.912,Digit Span Task,2021.2.3,Linux x86_64,60.0528465,,,,,,,,,,,,,,,,,,,,,
,,,,,,1,0,1,0,1,0,001,2022-04-28_14h53.59.912,Digit Span Task,2021.2.3,Linux x86_64,60.0528465,,,,,,,,,,,,,,,,,,,,,
,,,,,,2,0,2,0,1,0,001,2022-04-28_14h53.59.912,Digit Span Task,2021.2.3,Linux x86_64,60.0528465,,,,,,,,,,,,,,,,,,,,,
,,,,,,3,0,3,0,1,0,001,2022-04-28_14h53.59.912,Digit Span Task,2021.2.3,Linux x86_64,60.0528465,,,,,,,,,,,,,,,,,,,,,
,,,,,,4,0,4,0,1,0,001,2022-04-28_14h53.59.912,Digit Span Task,2021.2.3,Linux x86_64,60.0528465,,,,,,,,,,,,,,,,,,,,,
,,,,,,5,0,5,0,1,0,001,2022-04-28_14h53.59.912,Digit Span Task,2021.2.3,Linux x86_64,60.0528465,,,,,,,,,,,,,,,,,,,,,
,,,,,,6,0,6,0,1,0,001,2022-04-28_14h53.59.912,Digit Span Task,2021.2.3,Linux x86_64,60.0528465,,,,,,,,,,,,,,,,,,,,,
,,,,,,,,,,,0,001,2022-04-28_14h53.59.912,Digit Span Task,2021.2.3,Linux x86_64,60.0528465,429398,0,0.043538491,-0.390969435,1,0,0,cont_button,0,0,0,0,1,7,4498237,,,,,,
,,,,,,0,0,0,0,1,0,001,2022-04-28_14h53.59.912,Digit Span Task,2021.2.3,Linux x86_64,60.0528465,,,,,,,,,,,,,,,,,,,,,
,,,,,,1,0,1,0,1,0,001,2022-04-28_14h53.59.912,Digit Span Task,2021.2.3,Linux x86_64,60.0528465,,,,,,,,,,,,,,,,,,,,,
,,,,,,2,0,2,0,1,0,001,2022-04-28_14h53.59.912,Digit Span Task,2021.2.3,Linux x86_64,60.0528465,,,,,,,,,,,,,,,,,,,,,
,,,,,,3,0,3,0,1,0,001,2022-04-28_14h53.59.912,Digit Span Task,2021.2.3,Linux x86_64,60.0528465,,,,,,,,,,,,,,,,,,,,,
,,,,,,4,0,4,0,1,0,001,2022-04-28_14h53.59.912,Digit Span Task,2021.2.3,Linux x86_64,60.0528465,,,,,,,,,,,,,,,,,,,,,
,,,,,,5,0,5,0,1,0,001,2022-04-28_14h53.59.912,Digit Span Task,2021.2.3,Linux x86_64,60.0528465,,,,,,,,,,,,,,,,,,,,,
,,,,,,6,0,6,0,1,0,001,2022-04-28_14h53.59.912,Digit Span Task,2021.2.3,Linux x86_64,60.0528465,,,,,,,,,,,,,,,,,,,,,
,,,,,,,,,,,0,001,2022-04-28_14h53.59.912,Digit Span Task,2021.2.3,Linux x86_64,60.0528465,454347,0,0.043538491,-0.390969435,1,0,0,cont_button,0,1,1,1,1,7,2544371,,,,,,
,,,,,,0,0,0,0,1,0,001,2022-04-28_14h53.59.912,Digit Span Task,2021.2.3,Linux x86_64,60.0528465,,,,,,,,,,,,,,,,,,,,,
,,,,,,1,0,1,0,1,0,001,2022-04-28_14h53.59.912,Digit Span Task,2021.2.3,Linux x86_64,60.0528465,,,,,,,,,,,,,,,,,,,,,
,,,,,,2,0,2,0,1,0,001,2022-04-28_14h53.59.912,Digit Span Task,2021.2.3,Linux x86_64,60.0528465,,,,,,,,,,,,,,,,,,,,,
,,,,,,3,0,3,0,1,0,001,2022-04-28_14h53.59.912,Digit Span Task,2021.2.3,Linux x86_64,60.0528465,,,,,,,,,,,,,,,,,,,,,
,,,,,,4,0,4,0,1,0,001,2022-04-28_14h53.59.912,Digit Span Task,2021.2.3,Linux x86_64,60.0528465,,,,,,,,,,,,,,,,,,,,,
,,,,,,5,0,5,0,1,0,001,2022-04-28_14h53.59.912,Digit Span Task,2021.2.3,Linux x86_64,60.0528465,,,,,,,,,,,,,,,,,,,,,
,,,,,,6,0,6,0,1,0,001,2022-04-28_14h53.59.912,Digit Span Task,2021.2.3,Linux x86_64,60.0528465,,,,,,,,,,,,,,,,,,,,,
,,,,,,,,,,,0,001,2022-04-28_14h53.59.912,Digit Span Task,2021.2.3,Linux x86_64,60.0528465,887508,0,0.043538491,-0.390969435,1,0,0,cont_button,0,2,2,2,1,7,8875085,,,,,,
,,,,,,,,,,,0,001,2022-04-28_14h53.59.912,Digit Span Task,2021.2.3,Linux x86_64,60.0528465,,,,,,,,,,,,,,,,0,4,4,4,1,seven.xlsx
,,,,,,0,0,0,0,1,0,001,2022-04-28_14h53.59.912,Digit Span Task,2021.2.3,Linux x86_64,60.0528465,,,,,,,,,,,,,,,,,,,,,
,,,,,,1,0,1,0,1,0,001,2022-04-28_14h53.59.912,Digit Span Task,2021.2.3,Linux x86_64,60.0528465,,,,,,,,,,,,,,,,,,,,,
,,,,,,2,0,2,0,1,0,001,2022-04-28_14h53.59.912,Digit Span Task,2021.2.3,Linux x86_64,60.0528465,,,,,,,,,,,,,,,,,,,,,
,,,,,,3,0,3,0,1,0,001,2022-04-28_14h53.59.912,Digit Span Task,2021.2.3,Linux x86_64,60.0528465,,,,,,,,,,,,,,,,,,,,,
,,,,,,4,0,4,0,1,0,001,2022-04-28_14h53.59.912,Digit Span Task,2021.2.3,Linux x86_64,60.0528465,,,,,,,,,,,,,,,,,,,,,
,,,,,,5,0,5,0,1,0,001,2022-04-28_14h53.59.912,Digit Span Task,2021.2.3,Linux x86_64,60.0528465,,,,,,,,,,,,,,,,,,,,,
,,,,,,6,0,6,0,1,0,001,2022-04-28_14h53.59.912,Digit Span Task,2021.2.3,Linux x86_64,60.0528465,,,,,,,,,,,,,,,,,,,,,
,,,,,,7,0,7,0,1,0,001,2022-04-28_14h53.59.912,Digit Span Task,2021.2.3,Linux x86_64,60.0528465,,,,,,,,,,,,,,,,,,,,,
,,,,,,,,,,,0,001,2022-04-28_14h53.59.912,Digit Span Task,2021.2.3,Linux x86_64,60.0528465,462940,0,0.043538491,-0.390969435,1,0,0,cont_button,0,0,0,0,1,8,46229408,,,,,,
,,,,,,0,0,0,0,1,0,001,2022-04-28_14h53.59.912,Digit Span Task,2021.2.3,Linux x86_64,60.0528465,,,,,,,,,,,,,,,,,,,,,
,,,,,,1,0,1,0,1,0,001,2022-04-28_14h53.59.912,Digit Span Task,2021.2.3,Linux x86_64,60.0528465,,,,,,,,,,,,,,,,,,,,,
,,,,,,2,0,2,0,1,0,001,2022-04-28_14h53.59.912,Digit Span Task,2021.2.3,Linux x86_64,60.0528465,,,,,,,,,,,,,,,,,,,,,
,,,,,,3,0,3,0,1,0,001,2022-04-28_14h53.59.912,Digit Span Task,2021.2.3,Linux x86_64,60.0528465,,,,,,,,,,,,,,,,,,,,,
,,,,,,4,0,4,0,1,0,001,2022-04-28_14h53.59.912,Digit Span Task,2021.2.3,Linux x86_64,60.0528465,,,,,,,,,,,,,,,,,,,,,
,,,,,,5,0,5,0,1,0,001,2022-04-28_14h53.59.912,Digit Span Task,2021.2.3,Linux x86_64,60.0528465,,,,,,,,,,,,,,,,,,,,,
,,,,,,6,0,6,0,1,0,001,2022-04-28_14h53.59.912,Digit Span Task,2021.2.3,Linux x86_64,60.0528465,,,,,,,,,,,,,,,,,,,,,
,,,,,,7,0,7,0,1,0,001,2022-04-28_14h53.59.912,Digit Span Task,2021.2.3,Linux x86_64,60.0528465,,,,,,,,,,,,,,,,,,,,,
,,,,,,,,,,,0,001,2022-04-28_14h53.59.912,Digit Span Task,2021.2.3,Linux x86_64,60.0528465,7096788,0,0.043163141,-0.390969435,1,0,0,cont_button,0,1,1,1,1,8,70967882,,,,,,
,,,,,,0,0,0,0,1,0,001,2022-04-28_14h53.59.912,Digit Span Task,2021.2.3,Linux x86_64,60.0528465,,,,,,,,,,,,,,,,,,,,,
,,,,,,1,0,1,0,1,0,001,2022-04-28_14h53.59.912,Digit Span Task,2021.2.3,Linux x86_64,60.0528465,,,,,,,,,,,,,,,,,,,,,
,,,,,,2,0,2,0,1,0,001,2022-04-28_14h53.59.912,Digit Span Task,2021.2.3,Linux x86_64,60.0528465,,,,,,,,,,,,,,,,,,,,,
,,,,,,3,0,3,0,1,0,001,2022-04-28_14h53.59.912,Digit Span Task,2021.2.3,Linux x86_64,60.0528465,,,,,,,,,,,,,,,,,,,,,
,,,,,,4,0,4,0,1,0,001,2022-04-28_14h53.59.912,Digit Span Task,2021.2.3,Linux x86_64,60.0528465,,,,,,,,,,,,,,,,,,,,,
,,,,,,5,0,5,0,1,0,001,2022-04-28_14h53.59.912,Digit Span Task,2021.2.3,Linux x86_64,60.0528465,,,,,,,,,,,,,,,,,,,,,
,,,,,,6,0,6,0,1,0,001,2022-04-28_14h53.59.912,Digit Span Task,2021.2.3,Linux x86_64,60.0528465,,,,,,,,,,,,,,,,,,,,,
,,,,,,7,0,7,0,1,0,001,2022-04-28_14h53.59.912,Digit Span Task,2021.2.3,Linux x86_64,60.0528465,,,,,,,,,,,,,,,,,,,,,
,,,,,,,,,,,0,001,2022-04-28_14h53.59.912,Digit Span Task,2021.2.3,Linux x86_64,60.0528465,21 7321,0,0.043163141,-0.390969435,1,0,0,cont_button,0,2,2,2,1,8,27139320,,,,,,
,,,,,,,,,,,0,001,2022-04-28_14h53.59.912,Digit Span Task,2021.2.3,Linux x86_64,60.0528465,,,,,,,,,,,,,,,,0,5,5,5,1,eight.xlsx
,,,,,,0,0,0,0,1,0,001,2022-04-28_14h53.59.912,Digit Span Task,2021.2.3,Linux x86_64,60.0528465,,,,,,,,,,,,,,,,,,,,,
,,,,,,1,0,1,0,1,0,001,2022-04-28_14h53.59.912,Digit Span Task,2021.2.3,Linux x86_64,60.0528465,,,,,,,,,,,,,,,,,,,,,
,,,,,,2,0,2,0,1,0,001,2022-04-28_14h53.59.912,Digit Span Task,2021.2.3,Linux x86_64,60.0528465,,,,,,,,,,,,,,,,,,,,,
,,,,,,3,0,3,0,1,0,001,2022-04-28_14h53.59.912,Digit Span Task,2021.2.3,Linux x86_64,60.0528465,,,,,,,,,,,,,,,,,,,,,
,,,,,,4,0,4,0,1,0,001,2022-04-28_14h53.59.912,Digit Span Task,2021.2.3,Linux x86_64,60.0528465,,,,,,,,,,,,,,,,,,,,,
,,,,,,5,0,5,0,1,0,001,2022-04-28_14h53.59.912,Digit Span Task,2021.2.3,Linux x86_64,60.0528465,,,,,,,,,,,,,,,,,,,,,
,,,,,,6,0,6,0,1,0,001,2022-04-28_14h53.59.912,Digit Span Task,2021.2.3,Linux x86_64,60.0528465,,,,,,,,,,,,,,,,,,,,,
,,,,,,7,0,7,0,1,0,001,2022-04-28_14h53.59.912,Digit Span Task,2021.2.3,Linux x86_64,60.0528465,,,,,,,,,,,,,,,,,,,,,
,,,,,,8,0,8,0,1,0,001,2022-04-28_14h53.59.912,Digit Span Task,2021.2.3,Linux x86_64,60.0528465,,,,,,,,,,,,,,,,,,,,,
,,,,,,,,,,,0,001,2022-04-28_14h53.59.912,Digit Span Task,2021.2.3,Linux x86_64,60.0528465,3687432,0,0.043163141,-0.390969435,1,0,0,cont_button,0,0,0,0,1,9,368373442,,,,,,
,,,,,,0,0,0,0,1,0,001,2022-04-28_14h53.59.912,Digit Span Task,2021.2.3,Linux x86_64,60.0528465,,,,,,,,,,,,,,,,,,,,,
,,,,,,1,0,1,0,1,0,001,2022-04-28_14h53.59.912,Digit Span Task,2021.2.3,Linux x86_64,60.0528465,,,,,,,,,,,,,,,,,,,,,
,,,,,,2,0,2,0,1,0,001,2022-04-28_14h53.59.912,Digit Span Task,2021.2.3,Linux x86_64,60.0528465,,,,,,,,,,,,,,,,,,,,,
,,,,,,3,0,3,0,1,0,001,2022-04-28_14h53.59.912,Digit Span Task,2021.2.3,Linux x86_64,60.0528465,,,,,,,,,,,,,,,,,,,,,
,,,,,,4,0,4,0,1,0,001,2022-04-28_14h53.59.912,Digit Span Task,2021.2.3,Linux x86_64,60.0528465,,,,,,,,,,,,,,,,,,,,,
,,,,,,5,0,5,0,1,0,001,2022-04-28_14h53.59.912,Digit Span Task,2021.2.3,Linux x86_64,60.0528465,,,,,,,,,,,,,,,,,,,,,
,,,,,,6,0,6,0,1,0,001,2022-04-28_14h53.59.912,Digit Span Task,2021.2.3,Linux x86_64,60.0528465,,,,,,,,,,,,,,,,,,,,,
,,,,,,7,0,7,0,1,0,001,2022-04-28_14h53.59.912,Digit Span Task,2021.2.3,Linux x86_64,60.0528465,,,,,,,,,,,,,,,,,,,,,
,,,,,,8,0,8,0,1,0,001,2022-04-28_14h53.59.912,Digit Span Task,2021.2.3,Linux x86_64,60.0528465,,,,,,,,,,,,,,,,,,,,,
,,,,,,,,,,,0,001,2022-04-28_14h53.59.912,Digit Span Task,2021.2.3,Linux x86_64,60.0528465,6570910,0,0.043163141,-0.390969435,1,0,0,cont_button,0,1,1,1,1,9,576270919,,,,,,
,,,,,,0,0,0,0,1,0,001,2022-04-28_14h53.59.912,Digit Span Task,2021.2.3,Linux x86_64,60.0528465,,,,,,,,,,,,,,,,,,,,,
,,,,,,1,0,1,0,1,0,001,2022-04-28_14h53.59.912,Digit Span Task,2021.2.3,Linux x86_64,60.0528465,,,,,,,,,,,,,,,,,,,,,
,,,,,,2,0,2,0,1,0,001,2022-04-28_14h53.59.912,Digit Span Task,2021.2.3,Linux x86_64,60.0528465,,,,,,,,,,,,,,,,,,,,,
,,,,,,3,0,3,0,1,0,001,2022-04-28_14h53.59.912,Digit Span Task,2021.2.3,Linux x86_64,60.0528465,,,,,,,,,,,,,,,,,,,,,
,,,,,,4,0,4,0,1,0,001,2022-04-28_14h53.59.912,Digit Span Task,2021.2.3,Linux x86_64,60.0528465,,,,,,,,,,,,,,,,,,,,,
,,,,,,5,0,5,0,1,0,001,2022-04-28_14h53.59.912,Digit Span Task,2021.2.3,Linux x86_64,60.0528465,,,,,,,,,,,,,,,,,,,,,
,,,,,,6,0,6,0,1,0,001,2022-04-28_14h53.59.912,Digit Span Task,2021.2.3,Linux x86_64,60.0528465,,,,,,,,,,,,,,,,,,,,,
,,,,,,7,0,7,0,1,0,001,2022-04-28_14h53.59.912,Digit Span Task,2021.2.3,Linux x86_64,60.0528465,,,,,,,,,,,,,,,,,,,,,
,,,,,,8,0,8,0,1,0,001,2022-04-28_14h53.59.912,Digit Span Task,2021.2.3,Linux x86_64,60.0528465,,,,,,,,,,,,,,,,,,,,,
,,,,,,,,,,,0,001,2022-04-28_14h53.59.912,Digit Span Task,2021.2.3,Linux x86_64,60.0528465,6885975,0,0.043163141,-0.390969435,1,0,0,cont_button,0,2,2,2,1,9,688655957,,,,,,
,,,,,,,,,,,0,001,2022-04-28_14h53.59.912,Digit Span Task,2021.2.3,Linux x86_64,60.0528465,,,,,,,,,,,,,,,,0,6,6,6,1,nine.xlsx
,,,,,,0,0,0,0,1,0,001,2022-04-28_14h53.59.912,Digit Span Task,2021.2.3,Linux x86_64,60.0528465,,,,,,,,,,,,,,,,,,,,,
,,,,,,1,0,1,0,1,0,001,2022-04-28_14h53.59.912,Digit Span Task,2021.2.3,Linux x86_64,60.0528465,,,,,,,,,,,,,,,,,,,,,
,,,,,,2,0,2,0,1,0,001,2022-04-28_14h53.59.912,Digit Span Task,2021.2.3,Linux x86_64,60.0528465,,,,,,,,,,,,,,,,,,,,,
,,,,,,3,0,3,0,1,0,001,2022-04-28_14h53.59.912,Digit Span Task,2021.2.3,Linux x86_64,60.0528465,,,,,,,,,,,,,,,,,,,,,
,,,,,,4,0,4,0,1,0,001,2022-04-28_14h53.59.912,Digit Span Task,2021.2.3,Linux x86_64,60.0528465,,,,,,,,,,,,,,,,,,,,,
,,,,,,5,0,5,0,1,0,001,2022-04-28_14h53.59.912,Digit Span Task,2021.2.3,Linux x86_64,60.0528465,,,,,,,,,,,,,,,,,,,,,
,,,,,,6,0,6,0,1,0,001,2022-04-28_14h53.59.912,Digit Span Task,2021.2.3,Linux x86_64,60.0528465,,,,,,,,,,,,,,,,,,,,,
,,,,,,7,0,7,0,1,0,001,2022-04-28_14h53.59.912,Digit Span Task,2021.2.3,Linux x86_64,60.0528465,,,,,,,,,,,,,,,,,,,,,
,,,,,,8,0,8,0,1,0,001,2022-04-28_14h53.59.912,Digit Span Task,2021.2.3,Linux x86_64,60.0528465,,,,,,,,,,,,,,,,,,,,,
,,,,,,9,0,9,0,1,0,001,2022-04-28_14h53.59.912,Digit Span Task,2021.2.3,Linux x86_64,60.0528465,,,,,,,,,,,,,,,,,,,,,
,,,,,,,,,,,0,001,2022-04-28_14h53.59.912,Digit Span Task,2021.2.3,Linux x86_64,60.0528465,6432909,0,0.043163141,-0.390969435,1,0,0,cont_button,0,0,0,0,1,10,6432900801,,,,,,
,,,,,,0,0,0,0,1,0,001,2022-04-28_14h53.59.912,Digit Span Task,2021.2.3,Linux x86_64,60.0528465,,,,,,,,,,,,,,,,,,,,,
,,,,,,1,0,1,0,1,0,001,2022-04-28_14h53.59.912,Digit Span Task,2021.2.3,Linux x86_64,60.0528465,,,,,,,,,,,,,,,,,,,,,
,,,,,,2,0,2,0,1,0,001,2022-04-28_14h53.59.912,Digit Span Task,2021.2.3,Linux x86_64,60.0528465,,,,,,,,,,,,,,,,,,,,,
,,,,,,3,0,3,0,1,0,001,2022-04-28_14h53.59.912,Digit Span Task,2021.2.3,Linux x86_64,60.0528465,,,,,,,,,,,,,,,,,,,,,
,,,,,,4,0,4,0,1,0,001,2022-04-28_14h53.59.912,Digit Span Task,2021.2.3,Linux x86_64,60.0528465,,,,,,,,,,,,,,,,,,,,,
,,,,,,5,0,5,0,1,0,001,2022-04-28_14h53.59.912,Digit Span Task,2021.2.3,Linux x86_64,60.0528465,,,,,,,,,,,,,,,,,,,,,
,,,,,,6,0,6,0,1,0,001,2022-04-28_14h53.59.912,Digit Span Task,2021.2.3,Linux x86_64,60.0528465,,,,,,,,,,,,,,,,,,,,,
,,,,,,7,0,7,0,1,0,001,2022-04-28_14h53.59.912,Digit Span Task,2021.2.3,Linux x86_64,60.0528465,,,,,,,,,,,,,,,,,,,,,
,,,,,,8,0,8,0,1,0,001,2022-04-28_14h53.59.912,Digit Span Task,2021.2.3,Linux x86_64,60.0528465,,,,,,,,,,,,,,,,,,,,,
,,,,,,9,0,9,0,1,0,001,2022-04-28_14h53.59.912,Digit Span Task,2021.2.3,Linux x86_64,60.0528465,,,,,,,,,,,,,,,,,,,,,
,,,,,,,,,,,0,001,2022-04-28_14h53.59.912,Digit Span Task,2021.2.3,Linux x86_64,60.0528465,84674927,0,0.043163141,-0.390969435,1,0,0,cont_button,0,1,1,1,1,10,8467348927,,,,,,
,,,,,,0,0,0,0,1,0,001,2022-04-28_14h53.59.912,Digit Span Task,2021.2.3,Linux x86_64,60.0528465,,,,,,,,,,,,,,,,,,,,,
,,,,,,1,0,1,0,1,0,001,2022-04-28_14h53.59.912,Digit Span Task,2021.2.3,Linux x86_64,60.0528465,,,,,,,,,,,,,,,,,,,,,
,,,,,,2,0,2,0,1,0,001,2022-04-28_14h53.59.912,Digit Span Task,2021.2.3,Linux x86_64,60.0528465,,,,,,,,,,,,,,,,,,,,,
,,,,,,3,0,3,0,1,0,001,2022-04-28_14h53.59.912,Digit Span Task,2021.2.3,Linux x86_64,60.0528465,,,,,,,,,,,,,,,,,,,,,
,,,,,,4,0,4,0,1,0,001,2022-04-28_14h53.59.912,Digit Span Task,2021.2.3,Linux x86_64,60.0528465,,,,,,,,,,,,,,,,,,,,,
,,,,,,5,0,5,0,1,0,001,2022-04-28_14h53.59.912,Digit Span Task,2021.2.3,Linux x86_64,60.0528465,,,,,,,,,,,,,,,,,,,,,
,,,,,,6,0,6,0,1,0,001,2022-04-28_14h53.59.912,Digit Span Task,2021.2.3,Linux x86_64,60.0528465,,,,,,,,,,,,,,,,,,,,,
,,,,,,7,0,7,0,1,0,001,2022-04-28_14h53.59.912,Digit Span Task,2021.2.3,Linux x86_64,60.0528465,,,,,,,,,,,,,,,,,,,,,
,,,,,,8,0,8,0,1,0,001,2022-04-28_14h53.59.912,Digit Span Task,2021.2.3,Linux x86_64,60.0528465,,,,,,,,,,,,,,,,,,,,,
,,,,,,9,0,9,0,1,0,001,2022-04-28_14h53.59.912,Digit Span Task,2021.2.3,Linux x86_64,60.0528465,,,,,,,,,,,,,,,,,,,,,
,,,,,,,,,,,0,001,2022-04-28_14h53.59.912,Digit Span Task,2021.2.3,Linux x86_64,60.0528465,4193525,0,0.043163141,-0.390969435,1,0,0,cont_button,0,2,2,2,1,10,4184946413,,,,,,
,,,,,,,,,,,0,001,2022-04-28_14h53.59.912,Digit Span Task,2021.2.3,Linux x86_64,60.0528465,,,,,,,,,,,,,,,,0,7,7,7,1,ten.xlsx
,,,,,,0,0,0,0,1,0,001,2022-04-28_14h53.59.912,Digit Span Task,2021.2.3,Linux x86_64,60.0528465,,,,,,,,,,,,,,,,,,,,,
,,,,,,1,0,1,0,1,0,001,2022-04-28_14h53.59.912,Digit Span Task,2021.2.3,Linux x86_64,60.0528465,,,,,,,,,,,,,,,,,,,,,
,,,,,,2,0,2,0,1,0,001,2022-04-28_14h53.59.912,Digit Span Task,2021.2.3,Linux x86_64,60.0528465,,,,,,,,,,,,,,,,,,,,,
,,,,,,3,0,3,0,1,0,001,2022-04-28_14h53.59.912,Digit Span Task,2021.2.3,Linux x86_64,60.0528465,,,,,,,,,,,,,,,,,,,,,
,,,,,,4,0,4,0,1,0,001,2022-04-28_14h53.59.912,Digit Span Task,2021.2.3,Linux x86_64,60.0528465,,,,,,,,,,,,,,,,,,,,,
,,,,,,5,0,5,0,1,0,001,2022-04-28_14h53.59.912,Digit Span Task,2021.2.3,Linux x86_64,60.0528465,,,,,,,,,,,,,,,,,,,,,
,,,,,,6,0,6,0,1,0,001,2022-04-28_14h53.59.912,Digit Span Task,2021.2.3,Linux x86_64,60.0528465,,,,,,,,,,,,,,,,,,,,,
,,,,,,7,0,7,0,1,0,001,2022-04-28_14h53.59.912,Digit Span Task,2021.2.3,Linux x86_64,60.0528465,,,,,,,,,,,,,,,,,,,,,
,,,,,,8,0,8,0,1,0,001,2022-04-28_14h53.59.912,Digit Span Task,2021.2.3,Linux x86_64,60.0528465,,,,,,,,,,,,,,,,,,,,,
,,,,,,9,0,9,0,1,0,001,2022-04-28_14h53.59.912,Digit Span Task,2021.2.3,Linux x86_64,60.0528465,,,,,,,,,,,,,,,,,,,,,
,,,,,,10,0,10,0,1,0,001,2022-04-28_14h53.59.912,Digit Span Task,2021.2.3,Linux x86_64,60.0528465,,,,,,,,,,,,,,,,,,,,,
,,,,,,,,,,,0,001,2022-04-28_14h53.59.912,Digit Span Task,2021.2.3,Linux x86_64,60.0528465,730574670,0,0.043163141,-0.390969435,1,0,0,cont_button,0,0,0,0,1,11,73290740563,,,,,,
,,,,,,0,0,0,0,1,0,001,2022-04-28_14h53.59.912,Digit Span Task,2021.2.3,Linux x86_64,60.0528465,,,,,,,,,,,,,,,,,,,,,
,,,,,,1,0,1,0,1,0,001,2022-04-28_14h53.59.912,Digit Span Task,2021.2.3,Linux x86_64,60.0528465,,,,,,,,,,,,,,,,,,,,,
,,,,,,2,0,2,0,1,0,001,2022-04-28_14h53.59.912,Digit Span Task,2021.2.3,Linux x86_64,60.0528465,,,,,,,,,,,,,,,,,,,,,
,,,,,,3,0,3,0,1,0,001,2022-04-28_14h53.59.912,Digit Span Task,2021.2.3,Linux x86_64,60.0528465,,,,,,,,,,,,,,,,,,,,,
,,,,,,4,0,4,0,1,0,001,2022-04-28_14h53.59.912,Digit Span Task,2021.2.3,Linux x86_64,60.0528465,,,,,,,,,,,,,,,,,,,,,
,,,,,,5,0,5,0,1,0,001,2022-04-28_14h53.59.912,Digit Span Task,2021.2.3,Linux x86_64,60.0528465,,,,,,,,,,,,,,,,,,,,,
,,,,,,6,0,6,0,1,0,001,2022-04-28_14h53.59.912,Digit Span Task,2021.2.3,Linux x86_64,60.0528465,,,,,,,,,,,,,,,,,,,,,
,,,,,,7,0,7,0,1,0,001,2022-04-28_14h53.59.912,Digit Span Task,2021.2.3,Linux x86_64,60.0528465,,,,,,,,,,,,,,,,,,,,,
,,,,,,8,0,8,0,1,0,001,2022-04-28_14h53.59.912,Digit Span Task,2021.2.3,Linux x86_64,60.0528465,,,,,,,,,,,,,,,,,,,,,
,,,,,,9,0,9,0,1,0,001,2022-04-28_14h53.59.912,Digit Span Task,2021.2.3,Linux x86_64,60.0528465,,,,,,,,,,,,,,,,,,,,,
,,,,,,10,0,10,0,1,0,001,2022-04-28_14h53.59.912,Digit Span Task,2021.2.3,Linux x86_64,60.0528465,,,,,,,,,,,,,,,,,,,,,
,,,,,,,,,,,0,001,2022-04-28_14h53.59.912,Digit Span Task,2021.2.3,Linux x86_64,60.0528465,74792224,0,0.044852098,-0.404481729,1,0,0,cont_button,0,1,1,1,1,11,74948772224,,,,,,
,,,,,,0,0,0,0,1,0,001,2022-04-28_14h53.59.912,Digit Span Task,2021.2.3,Linux x86_64,60.0528465,,,,,,,,,,,,,,,,,,,,,
,,,,,,1,0,1,0,1,0,001,2022-04-28_14h53.59.912,Digit Span Task,2021.2.3,Linux x86_64,60.0528465,,,,,,,,,,,,,,,,,,,,,
,,,,,,2,0,2,0,1,0,001,2022-04-28_14h53.59.912,Digit Span Task,2021.2.3,Linux x86_64,60.0528465,,,,,,,,,,,,,,,,,,,,,
,,,,,,3,0,3,0,1,0,001,2022-04-28_14h53.59.912,Digit Span Task,2021.2.3,Linux x86_64,60.0528465,,,,,,,,,,,,,,,,,,,,,
,,,,,,4,0,4,0,1,0,001,2022-04-28_14h53.59.912,Digit Span Task,2021.2.3,Linux x86_64,60.0528465,,,,,,,,,,,,,,,,,,,,,
,,,,,,5,0,5,0,1,0,001,2022-04-28_14h53.59.912,Digit Span Task,2021.2.3,Linux x86_64,60.0528465,,,,,,,,,,,,,,,,,,,,,
,,,,,,6,0,6,0,1,0,001,2022-04-28_14h53.59.912,Digit Span Task,2021.2.3,Linux x86_64,60.0528465,,,,,,,,,,,,,,,,,,,,,
,,,,,,7,0,7,0,1,0,001,2022-04-28_14h53.59.912,Digit Span Task,2021.2.3,Linux x86_64,60.0528465,,,,,,,,,,,,,,,,,,,,,
,,,,,,8,0,8,0,1,0,001,2022-04-28_14h53.59.912,Digit Span Task,2021.2.3,Linux x86_64,60.0528465,,,,,,,,,,,,,,,,,,,,,
,,,,,,9,0,9,0,1,0,001,2022-04-28_14h53.59.912,Digit Span Task,2021.2.3,Linux x86_64,60.0528465,,,,,,,,,,,,,,,,,,,,,
,,,,,,10,0,10,0,1,0,001,2022-04-28_14h53.59.912,Digit Span Task,2021.2.3,Linux x86_64,60.0528465,,,,,,,,,,,,,,,,,,,,,
,,,,,,,,,,,0,001,2022-04-28_14h53.59.912,Digit Span Task,2021.2.3,Linux x86_64,60.0528465,97072202,0,0.044852098,-0.404481729,1,0,0,cont_button,0,2,2,2,1,11,97084622072,,,,,,
,,,,,,,,,,,0,001,2022-04-28_14h53.59.912,Digit Span Task,2021.2.3,Linux x86_64,60.0528465,,,,,,,,,,,,,,,,0,8,8,8,1,eleven.xlsx
,,,,,,0,0,0,0,1,0,001,2022-04-28_14h53.59.912,Digit Span Task,2021.2.3,Linux x86_64,60.0528465,,,,,,,,,,,,,,,,,,,,,
,,,,,,1,0,1,0,1,0,001,2022-04-28_14h53.59.912,Digit Span Task,2021.2.3,Linux x86_64,60.0528465,,,,,,,,,,,,,,,,,,,,,
,,,,,,2,0,2,0,1,0,001,2022-04-28_14h53.59.912,Digit Span Task,2021.2.3,Linux x86_64,60.0528465,,,,,,,,,,,,,,,,,,,,,
,,,,,,3,0,3,0,1,0,001,2022-04-28_14h53.59.912,Digit Span Task,2021.2.3,Linux x86_64,60.0528465,,,,,,,,,,,,,,,,,,,,,
,,,,,,4,0,4,0,1,0,001,2022-04-28_14h53.59.912,Digit Span Task,2021.2.3,Linux x86_64,60.0528465,,,,,,,,,,,,,,,,,,,,,
,,,,,,5,0,5,0,1,0,001,2022-04-28_14h53.59.912,Digit Span Task,2021.2.3,Linux x86_64,60.0528465,,,,,,,,,,,,,,,,,,,,,
,,,,,,6,0,6,0,1,0,001,2022-04-28_14h53.59.912,Digit Span Task,2021.2.3,Linux x86_64,60.0528465,,,,,,,,,,,,,,,,,,,,,
,,,,,,7,0,7,0,1,0,001,2022-04-28_14h53.59.912,Digit Span Task,2021.2.3,Linux x86_64,60.0528465,,,,,,,,,,,,,,,,,,,,,
,,,,,,8,0,8,0,1,0,001,2022-04-28_14h53.59.912,Digit Span Task,2021.2.3,Linux x86_64,60.0528465,,,,,,,,,,,,,,,,,,,,,
,,,,,,9,0,9,0,1,0,001,2022-04-28_14h53.59.912,Digit Span Task,2021.2.3,Linux x86_64,60.0528465,,,,,,,,,,,,,,,,,,,,,
,,,,,,10,0,10,0,1,0,001,2022-04-28_14h53.59.912,Digit Span Task,2021.2.3,Linux x86_64,60.0528465,,,,,,,,,,,,,,,,,,,,,
,,,,,,11,0,11,0,1,0,001,2022-04-28_14h53.59.912,Digit Span Task,2021.2.3,Linux x86_64,60.0528465,,,,,,,,,,,,,,,,,,,,,
,,,,,,,,,,,0,001,2022-04-28_14h53.59.912,Digit Span Task,2021.2.3,Linux x86_64,60.0528465,861325726,0,0.044852098,-0.404481729,1,0,0,cont_button,0,0,0,0,1,12,6.81346E+11,,,,,,
,,,,,,0,0,0,0,1,0,001,2022-04-28_14h53.59.912,Digit Span Task,2021.2.3,Linux x86_64,60.0528465,,,,,,,,,,,,,,,,,,,,,
,,,,,,1,0,1,0,1,0,001,2022-04-28_14h53.59.912,Digit Span Task,2021.2.3,Linux x86_64,60.0528465,,,,,,,,,,,,,,,,,,,,,
,,,,,,2,0,2,0,1,0,001,2022-04-28_14h53.59.912,Digit Span Task,2021.2.3,Linux x86_64,60.0528465,,,,,,,,,,,,,,,,,,,,,
,,,,,,3,0,3,0,1,0,001,2022-04-28_14h53.59.912,Digit Span Task,2021.2.3,Linux x86_64,60.0528465,,,,,,,,,,,,,,,,,,,,,
,,,,,,4,0,4,0,1,0,001,2022-04-28_14h53.59.912,Digit Span Task,2021.2.3,Linux x86_64,60.0528465,,,,,,,,,,,,,,,,,,,,,
,,,,,,5,0,5,0,1,0,001,2022-04-28_14h53.59.912,Digit Span Task,2021.2.3,Linux x86_64,60.0528465,,,,,,,,,,,,,,,,,,,,,
,,,,,,6,0,6,0,1,0,001,2022-04-28_14h53.59.912,Digit Span Task,2021.2.3,Linux x86_64,60.0528465,,,,,,,,,,,,,,,,,,,,,
,,,,,,7,0,7,0,1,0,001,2022-04-28_14h53.59.912,Digit Span Task,2021.2.3,Linux x86_64,60.0528465,,,,,,,,,,,,,,,,,,,,,
,,,,,,8,0,8,0,1,0,001,2022-04-28_14h53.59.912,Digit Span Task,2021.2.3,Linux x86_64,60.0528465,,,,,,,,,,,,,,,,,,,,,
,,,,,,9,0,9,0,1,0,001,2022-04-28_14h53.59.912,Digit Span Task,2021.2.3,Linux x86_64,60.0528465,,,,,,,,,,,,,,,,,,,,,
,,,,,,10,0,10,0,1,0,001,2022-04-28_14h53.59.912,Digit Span Task,2021.2.3,Linux x86_64,60.0528465,,,,,,,,,,,,,,,,,,,,,
,,,,,,11,0,11,0,1,0,001,2022-04-28_14h53.59.912,Digit Span Task,2021.2.3,Linux x86_64,60.0528465,,,,,,,,,,,,,,,,,,,,,
,,,,,,,,,,,0,001,2022-04-28_14h53.59.912,Digit Span Task,2021.2.3,Linux x86_64,60.0528465,87537912551,0,0.044852098,-0.404481729,1,0,0,cont_button,0,1,1,1,1,12,8.7238E+11,,,,,,
,,,,,,0,0,0,0,1,0,001,2022-04-28_14h53.59.912,Digit Span Task,2021.2.3,Linux x86_64,60.0528465,,,,,,,,,,,,,,,,,,,,,
,,,,,,1,0,1,0,1,0,001,2022-04-28_14h53.59.912,Digit Span Task,2021.2.3,Linux x86_64,60.0528465,,,,,,,,,,,,,,,,,,,,,
,,,,,,2,0,2,0,1,0,001,2022-04-28_14h53.59.912,Digit Span Task,2021.2.3,Linux x86_64,60.0528465,,,,,,,,,,,,,,,,,,,,,
,,,,,,3,0,3,0,1,0,001,2022-04-28_14h53.59.912,Digit Span Task,2021.2.3,Linux x86_64,60.0528465,,,,,,,,,,,,,,,,,,,,,
,,,,,,4,0,4,0,1,0,001,2022-04-28_14h53.59.912,Digit Span Task,2021.2.3,Linux x86_64,60.0528465,,,,,,,,,,,,,,,,,,,,,
,,,,,,5,0,5,0,1,0,001,2022-04-28_14h53.59.912,Digit Span Task,2021.2.3,Linux x86_64,60.0528465,,,,,,,,,,,,,,,,,,,,,
,,,,,,6,0,6,0,1,0,001,2022-04-28_14h53.59.912,Digit Span Task,2021.2.3,Linux x86_64,60.0528465,,,,,,,,,,,,,,,,,,,,,
,,,,,,7,0,7,0,1,0,001,2022-04-28_14h53.59.912,Digit Span Task,2021.2.3,Linux x86_64,60.0528465,,,,,,,,,,,,,,,,,,,,,
,,,,,,8,0,8,0,1,0,001,2022-04-28_14h53.59.912,Digit Span Task,2021.2.3,Linux x86_64,60.0528465,,,,,,,,,,,,,,,,,,,,,
,,,,,,9,0,9,0,1,0,001,2022-04-28_14h53.59.912,Digit Span Task,2021.2.3,Linux x86_64,60.0528465,,,,,,,,,,,,,,,,,,,,,
,,,,,,10,0,10,0,1,0,001,2022-04-28_14h53.59.912,Digit Span Task,2021.2.3,Linux x86_64,60.0528465,,,,,,,,,,,,,,,,,,,,,
,,,,,,11,0,11,0,1,0,001,2022-04-28_14h53.59.912,Digit Span Task,2021.2.3,Linux x86_64,60.0528465,,,,,,,,,,,,,,,,,,,,,
,,,,,,,,,,,0,001,2022-04-28_14h53.59.912,Digit Span Task,2021.2.3,Linux x86_64,60.0528465,41072521,0,0.044852098,-0.404481729,1,0,0,cont_button,0,2,2,2,1,12,2.41072E+11,,,,,,
,,,,,,,,,,,0,001,2022-04-28_14h53.59.912,Digit Span Task,2021.2.3,Linux x86_64,60.0528465,,,,,,,,,,,,,,,,0,9,9,9,1,twelve.xlsx
,,,,,,0,0,0,0,1,0,001,2022-04-28_14h53.59.912,Digit Span Task,2021.2.3,Linux x86_64,60.0528465,,,,,,,,,,,,,,,,,,,,,
,,,,,,1,0,1,0,1,0,001,2022-04-28_14h53.59.912,Digit Span Task,2021.2.3,Linux x86_64,60.0528465,,,,,,,,,,,,,,,,,,,,,
,,,,,,2,0,2,0,1,0,001,2022-04-28_14h53.59.912,Digit Span Task,2021.2.3,Linux x86_64,60.0528465,,,,,,,,,,,,,,,,,,,,,
,,,,,,,,,,,0,001,2022-04-28_14h53.59.912,Digit Span Task,2021.2.3,Linux x86_64,60.0528465,217,1,0.044852098,-0.404481729,1,0,0,cont_button,0,0,0,0,1,3,217,,,,,,
,,,,,,0,0,0,0,1,0,001,2022-04-28_14h53.59.912,Digit Span Task,2021.2.3,Linux x86_64,60.0528465,,,,,,,,,,,,,,,,,,,,,
,,,,,,1,0,1,0,1,0,001,2022-04-28_14h53.59.912,Digit Span Task,2021.2.3,Linux x86_64,60.0528465,,,,,,,,,,,,,,,,,,,,,
,,,,,,2,0,2,0,1,0,001,2022-04-28_14h53.59.912,Digit Span Task,2021.2.3,Linux x86_64,60.0528465,,,,,,,,,,,,,,,,,,,,,
,,,,,,,,,,,0,001,2022-04-28_14h53.59.912,Digit Span Task,2021.2.3,Linux x86_64,60.0528465,486,1,0.044852098,-0.404481729,1,0,0,cont_button,0,1,1,1,1,3,486,,,,,,
,,,,,,0,0,0,0,1,0,001,2022-04-28_14h53.59.912,Digit Span Task,2021.2.3,Linux x86_64,60.0528465,,,,,,,,,,,,,,,,,,,,,
,,,,,,1,0,1,0,1,0,001,2022-04-28_14h53.59.912,Digit Span Task,2021.2.3,Linux x86_64,60.0528465,,,,,,,,,,,,,,,,,,,,,
,,,,,,2,0,2,0,1,0,001,2022-04-28_14h53.59.912,Digit Span Task,2021.2.3,Linux x86_64,60.0528465,,,,,,,,,,,,,,,,,,,,,
,,,,,,,,,,,0,001,2022-04-28_14h53.59.912,Digit Span Task,2021.2.3,Linux x86_64,60.0528465,760,1,0.044852098,-0.404857079,1,0,0,cont_button,0,2,2,2,1,3,760,,,,,,
,,,,,,,,,,,0,001,2022-04-28_14h53.59.912,Digit Span Task,2021.2.3,Linux x86_64,60.0528465,,,,,,,,,,,,,,,,1,0,10,0,1,three.xlsx
,,,,,,0,0,0,0,1,0,001,2022-04-28_14h53.59.912,Digit Span Task,2021.2.3,Linux x86_64,60.0528465,,,,,,,,,,,,,,,,,,,,,
,,,,,,1,0,1,0,1,0,001,2022-04-28_14h53.59.912,Digit Span Task,2021.2.3,Linux x86_64,60.0528465,,,,,,,,,,,,,,,,,,,,,
,,,,,,2,0,2,0,1,0,001,2022-04-28_14h53.59.912,Digit Span Task,2021.2.3,Linux x86_64,60.0528465,,,,,,,,,,,,,,,,,,,,,
,,,,,,3,0,3,0,1,0,001,2022-04-28_14h53.59.912,Digit Span Task,2021.2.3,Linux x86_64,60.0528465,,,,,,,,,,,,,,,,,,,,,
,,,,,,,,,,,0,001,2022-04-28_14h53.59.912,Digit Span Task,2021.2.3,Linux x86_64,60.0528465,3141,1,0.044852098,-0.404857079,1,0,0,cont_button,0,0,0,0,1,4,3141,,,,,,
,,,,,,0,0,0,0,1,0,001,2022-04-28_14h53.59.912,Digit Span Task,2021.2.3,Linux x86_64,60.0528465,,,,,,,,,,,,,,,,,,,,,
,,,,,,1,0,1,0,1,0,001,2022-04-28_14h53.59.912,Digit Span Task,2021.2.3,Linux x86_64,60.0528465,,,,,,,,,,,,,,,,,,,,,
,,,,,,2,0,2,0,1,0,001,2022-04-28_14h53.59.912,Digit Span Task,2021.2.3,Linux x86_64,60.0528465,,,,,,,,,,,,,,,,,,,,,
,,,,,,3,0,3,0,1,0,001,2022-04-28_14h53.59.912,Digit Span Task,2021.2.3,Linux x86_64,60.0528465,,,,,,,,,,,,,,,,,,,,,
,,,,,,,,,,,0,001,2022-04-28_14h53.59.912,Digit Span Task,2021.2.3,Linux x86_64,60.0528465,6351,1,0.044852098,-0.404857079,1,0,0,cont_button,0,1,1,1,1,4,6351,,,,,,
,,,,,,0,0,0,0,1,0,001,2022-04-28_14h53.59.912,Digit Span Task,2021.2.3,Linux x86_64,60.0528465,,,,,,,,,,,,,,,,,,,,,
,,,,,,1,0,1,0,1,0,001,2022-04-28_14h53.59.912,Digit Span Task,2021.2.3,Linux x86_64,60.0528465,,,,,,,,,,,,,,,,,,,,,
,,,,,,2,0,2,0,1,0,001,2022-04-28_14h53.59.912,Digit Span Task,2021.2.3,Linux x86_64,60.0528465,,,,,,,,,,,,,,,,,,,,,
,,,,,,3,0,3,0,1,0,001,2022-04-28_14h53.59.912,Digit Span Task,2021.2.3,Linux x86_64,60.0528465,,,,,,,,,,,,,,,,,,,,,
,,,,,,,,,,,0,001,2022-04-28_14h53.59.912,Digit Span Task,2021.2.3,Linux x86_64,60.0528465,2391,1,0.044852098,-0.404857079,1,0,0,cont_button,0,2,2,2,1,4,2391,,,,,,
,,,,,,,,,,,0,001,2022-04-28_14h53.59.912,Digit Span Task,2021.2.3,Linux x86_64,60.0528465,,,,,,,,,,,,,,,,1,1,11,1,1,four.xlsx
,,,,,,0,0,0,0,1,0,001,2022-04-28_14h53.59.912,Digit Span Task,2021.2.3,Linux x86_64,60.0528465,,,,,,,,,,,,,,,,,,,,,
,,,,,,1,0,1,0,1,0,001,2022-04-28_14h53.59.912,Digit Span Task,2021.2.3,Linux x86_64,60.0528465,,,,,,,,,,,,,,,,,,,,,
,,,,,,2,0,2,0,1,0,001,2022-04-28_14h53.59.912,Digit Span Task,2021.2.3,Linux x86_64,60.0528465,,,,,,,,,,,,,,,,,,,,,
,,,,,,3,0,3,0,1,0,001,2022-04-28_14h53.59.912,Digit Span Task,2021.2.3,Linux x86_64,60.0528465,,,,,,,,,,,,,,,,,,,,,
,,,,,,4,0,4,0,1,0,001,2022-04-28_14h53.59.912,Digit Span Task,2021.2.3,Linux x86_64,60.0528465,,,,,,,,,,,,,,,,,,,,,
