start_mouse.x,start_mouse.y,start_mouse.leftButton,start_mouse.midButton,start_mouse.rightButton,start_mouse.clicked_name,digitLoop.thisRepN,digitLoop.thisTrialN,digitLoop.thisN,digitLoop.thisIndex,digitLoop.ran,participant,session,date,expName,psychopyVersion,OS,frameRate,textbox.text,correct,mouse.x,mouse.y,mouse.leftButton,mouse.midButton,mouse.rightButton,mouse.clicked_name,trials.thisRepN,trials.thisTrialN,trials.thisN,trials.thisIndex,trials.ran,digitSpan,digits,blocks.thisRepN,blocks.thisTrialN,blocks.thisN,blocks.thisIndex,blocks.ran,condition_file
0.068518519,-0.407407407,1,0,0,cont_button,0,0,0,0,1,hafeman,001,2022-04-26_16h02.44.134,Digit Span Task,2021.2.3,Win32,75.07507508,,,,,,,,,,,,,,,,,,,,,
,,,,,,1,0,1,0,1,hafeman,001,2022-04-26_16h02.44.134,Digit Span Task,2021.2.3,Win32,75.07507508,,,,,,,,,,,,,,,,,,,,,
,,,,,,2,0,2,0,1,hafeman,001,2022-04-26_16h02.44.134,Digit Span Task,2021.2.3,Win32,75.07507508,,,,,,,,,,,,,,,,,,,,,
,,,,,,,,,,,hafeman,001,2022-04-26_16h02.44.134,Digit Span Task,2021.2.3,Win32,75.07507508,,0,0.011111111,-0.412962963,1,0,0,cont_button,0,0,0,0,1,3,217,,,,,,
,,,,,,0,0,0,0,1,hafeman,001,2022-04-26_16h02.44.134,Digit Span Task,2021.2.3,Win32,75.07507508,,,,,,,,,,,,,,,,,,,,,
,,,,,,1,0,1,0,1,hafeman,001,2022-04-26_16h02.44.134,Digit Span Task,2021.2.3,Win32,75.07507508,,,,,,,,,,,,,,,,,,,,,
,,,,,,2,0,2,0,1,hafeman,001,2022-04-26_16h02.44.134,Digit Span Task,2021.2.3,Win32,75.07507508,,,,,,,,,,,,,,,,,,,,,
,,,,,,,,,,,hafeman,001,2022-04-26_16h02.44.134,Digit Span Task,2021.2.3,Win32,75.07507508,,0,0.009259259,-0.410185185,1,0,0,cont_button,0,1,1,1,1,3,486,,,,,,
,,,,,,0,0,0,0,1,hafeman,001,2022-04-26_16h02.44.134,Digit Span Task,2021.2.3,Win32,75.07507508,,,,,,,,,,,,,,,,,,,,,
,,,,,,1,0,1,0,1,hafeman,001,2022-04-26_16h02.44.134,Digit Span Task,2021.2.3,Win32,75.07507508,,,,,,,,,,,,,,,,,,,,,
,,,,,,2,0,2,0,1,hafeman,001,2022-04-26_16h02.44.134,Digit Span Task,2021.2.3,Win32,75.07507508,,,,,,,,,,,,,,,,,,,,,
,,,,,,,,,,,hafeman,001,2022-04-26_16h02.44.134,Digit Span Task,2021.2.3,Win32,75.07507508,,0,0,-0.403703704,1,0,0,cont_button,0,2,2,2,1,3,760,,,,,,
,,,,,,,,,,,hafeman,001,2022-04-26_16h02.44.134,Digit Span Task,2021.2.3,Win32,75.07507508,,,,,,,,,,,,,,,,0,0,0,0,1,three.xlsx
,,,,,,0,0,0,0,1,hafeman,001,2022-04-26_16h02.44.134,Digit Span Task,2021.2.3,Win32,75.07507508,,,,,,,,,,,,,,,,,,,,,
,,,,,,1,0,1,0,1,hafeman,001,2022-04-26_16h02.44.134,Digit Span Task,2021.2.3,Win32,75.07507508,,,,,,,,,,,,,,,,,,,,,
,,,,,,2,0,2,0,1,hafeman,001,2022-04-26_16h02.44.134,Digit Span Task,2021.2.3,Win32,75.07507508,,,,,,,,,,,,,,,,,,,,,
,,,,,,3,0,3,0,1,hafeman,001,2022-04-26_16h02.44.134,Digit Span Task,2021.2.3,Win32,75.07507508,,,,,,,,,,,,,,,,,,,,,
,,,,,,,,,,,hafeman,001,2022-04-26_16h02.44.134,Digit Span Task,2021.2.3,Win32,75.07507508,,0,-0.001851852,-0.405555556,1,0,0,cont_button,0,0,0,0,1,4,3141,,,,,,
,,,,,,0,0,0,0,1,hafeman,001,2022-04-26_16h02.44.134,Digit Span Task,2021.2.3,Win32,75.07507508,,,,,,,,,,,,,,,,,,,,,
,,,,,,1,0,1,0,1,hafeman,001,2022-04-26_16h02.44.134,Digit Span Task,2021.2.3,Win32,75.07507508,,,,,,,,,,,,,,,,,,,,,
,,,,,,2,0,2,0,1,hafeman,001,2022-04-26_16h02.44.134,Digit Span Task,2021.2.3,Win32,75.07507508,,,,,,,,,,,,,,,,,,,,,
,,,,,,3,0,3,0,1,hafeman,001,2022-04-26_16h02.44.134,Digit Span Task,2021.2.3,Win32,75.07507508,,,,,,,,,,,,,,,,,,,,,
,,,,,,,,,,,hafeman,001,2022-04-26_16h02.44.134,Digit Span Task,2021.2.3,Win32,75.07507508,,0,-0.00462963,-0.412037037,1,0,0,cont_button,0,1,1,1,1,4,6351,,,,,,
,,,,,,0,0,0,0,1,hafeman,001,2022-04-26_16h02.44.134,Digit Span Task,2021.2.3,Win32,75.07507508,,,,,,,,,,,,,,,,,,,,,
,,,,,,1,0,1,0,1,hafeman,001,2022-04-26_16h02.44.134,Digit Span Task,2021.2.3,Win32,75.07507508,,,,,,,,,,,,,,,,,,,,,
,,,,,,2,0,2,0,1,hafeman,001,2022-04-26_16h02.44.134,Digit Span Task,2021.2.3,Win32,75.07507508,,,,,,,,,,,,,,,,,,,,,
,,,,,,3,0,3,0,1,hafeman,001,2022-04-26_16h02.44.134,Digit Span Task,2021.2.3,Win32,75.07507508,,,,,,,,,,,,,,,,,,,,,
,,,,,,,,,,,hafeman,001,2022-04-26_16h02.44.134,Digit Span Task,2021.2.3,Win32,75.07507508,,0,-0.062962963,-0.405555556,1,0,0,cont_button,0,2,2,2,1,4,2391,,,,,,
,,,,,,,,,,,hafeman,001,2022-04-26_16h02.44.134,Digit Span Task,2021.2.3,Win32,75.07507508,,,,,,,,,,,,,,,,0,1,1,1,1,four.xlsx
,,,,,,0,0,0,0,1,hafeman,001,2022-04-26_16h02.44.134,Digit Span Task,2021.2.3,Win32,75.07507508,,,,,,,,,,,,,,,,,,,,,
,,,,,,1,0,1,0,1,hafeman,001,2022-04-26_16h02.44.134,Digit Span Task,2021.2.3,Win32,75.07507508,,,,,,,,,,,,,,,,,,,,,
,,,,,,2,0,2,0,1,hafeman,001,2022-04-26_16h02.44.134,Digit Span Task,2021.2.3,Win32,75.07507508,,,,,,,,,,,,,,,,,,,,,
,,,,,,3,0,3,0,1,hafeman,001,2022-04-26_16h02.44.134,Digit Span Task,2021.2.3,Win32,75.07507508,,,,,,,,,,,,,,,,,,,,,
,,,,,,4,0,4,0,1,hafeman,001,2022-04-26_16h02.44.134,Digit Span Task,2021.2.3,Win32,75.07507508,,,,,,,,,,,,,,,,,,,,,
,,,,,,,,,,,hafeman,001,2022-04-26_16h02.44.134,Digit Span Task,2021.2.3,Win32,75.07507508,,0,-0.072222222,-0.422222222,1,0,0,cont_button,0,0,0,0,1,5,14932,,,,,,
,,,,,,0,0,0,0,1,hafeman,001,2022-04-26_16h02.44.134,Digit Span Task,2021.2.3,Win32,75.07507508,,,,,,,,,,,,,,,,,,,,,
,,,,,,1,0,1,0,1,hafeman,001,2022-04-26_16h02.44.134,Digit Span Task,2021.2.3,Win32,75.07507508,,,,,,,,,,,,,,,,,,,,,
,,,,,,2,0,2,0,1,hafeman,001,2022-04-26_16h02.44.134,Digit Span Task,2021.2.3,Win32,75.07507508,,,,,,,,,,,,,,,,,,,,,
,,,,,,3,0,3,0,1,hafeman,001,2022-04-26_16h02.44.134,Digit Span Task,2021.2.3,Win32,75.07507508,,,,,,,,,,,,,,,,,,,,,
,,,,,,4,0,4,0,1,hafeman,001,2022-04-26_16h02.44.134,Digit Span Task,2021.2.3,Win32,75.07507508,,,,,,,,,,,,,,,,,,,,,
,,,,,,,,,,,hafeman,001,2022-04-26_16h02.44.134,Digit Span Task,2021.2.3,Win32,75.07507508,,0,-0.117592593,-0.400925926,1,0,0,cont_button,0,1,1,1,1,5,10646,,,,,,
,,,,,,0,0,0,0,1,hafeman,001,2022-04-26_16h02.44.134,Digit Span Task,2021.2.3,Win32,75.07507508,,,,,,,,,,,,,,,,,,,,,
,,,,,,1,0,1,0,1,hafeman,001,2022-04-26_16h02.44.134,Digit Span Task,2021.2.3,Win32,75.07507508,,,,,,,,,,,,,,,,,,,,,
,,,,,,2,0,2,0,1,hafeman,001,2022-04-26_16h02.44.134,Digit Span Task,2021.2.3,Win32,75.07507508,,,,,,,,,,,,,,,,,,,,,
,,,,,,3,0,3,0,1,hafeman,001,2022-04-26_16h02.44.134,Digit Span Task,2021.2.3,Win32,75.07507508,,,,,,,,,,,,,,,,,,,,,
,,,,,,4,0,4,0,1,hafeman,001,2022-04-26_16h02.44.134,Digit Span Task,2021.2.3,Win32,75.07507508,,,,,,,,,,,,,,,,,,,,,
,,,,,,,,,,,hafeman,001,2022-04-26_16h02.44.134,Digit Span Task,2021.2.3,Win32,75.07507508,,0,-0.09537037,-0.393518519,1,0,0,cont_button,0,2,2,2,1,5,74832,,,,,,
,,,,,,,,,,,hafeman,001,2022-04-26_16h02.44.134,Digit Span Task,2021.2.3,Win32,75.07507508,,,,,,,,,,,,,,,,0,2,2,2,1,five.xlsx
,,,,,,0,0,0,0,1,hafeman,001,2022-04-26_16h02.44.134,Digit Span Task,2021.2.3,Win32,75.07507508,,,,,,,,,,,,,,,,,,,,,
,,,,,,1,0,1,0,1,hafeman,001,2022-04-26_16h02.44.134,Digit Span Task,2021.2.3,Win32,75.07507508,,,,,,,,,,,,,,,,,,,,,
,,,,,,2,0,2,0,1,hafeman,001,2022-04-26_16h02.44.134,Digit Span Task,2021.2.3,Win32,75.07507508,,,,,,,,,,,,,,,,,,,,,
,,,,,,3,0,3,0,1,hafeman,001,2022-04-26_16h02.44.134,Digit Span Task,2021.2.3,Win32,75.07507508,,,,,,,,,,,,,,,,,,,,,
,,,,,,4,0,4,0,1,hafeman,001,2022-04-26_16h02.44.134,Digit Span Task,2021.2.3,Win32,75.07507508,,,,,,,,,,,,,,,,,,,,,
,,,,,,5,0,5,0,1,hafeman,001,2022-04-26_16h02.44.134,Digit Span Task,2021.2.3,Win32,75.07507508,,,,,,,,,,,,,,,,,,,,,
,,,,,,,,,,,hafeman,001,2022-04-26_16h02.44.134,Digit Span Task,2021.2.3,Win32,75.07507508,,0,-0.048148148,-0.380555556,1,0,0,cont_button,0,0,0,0,1,6,934648,,,,,,
,,,,,,0,0,0,0,1,hafeman,001,2022-04-26_16h02.44.134,Digit Span Task,2021.2.3,Win32,75.07507508,,,,,,,,,,,,,,,,,,,,,
,,,,,,1,0,1,0,1,hafeman,001,2022-04-26_16h02.44.134,Digit Span Task,2021.2.3,Win32,75.07507508,,,,,,,,,,,,,,,,,,,,,
,,,,,,2,0,2,0,1,hafeman,001,2022-04-26_16h02.44.134,Digit Span Task,2021.2.3,Win32,75.07507508,,,,,,,,,,,,,,,,,,,,,
,,,,,,3,0,3,0,1,hafeman,001,2022-04-26_16h02.44.134,Digit Span Task,2021.2.3,Win32,75.07507508,,,,,,,,,,,,,,,,,,,,,
,,,,,,4,0,4,0,1,hafeman,001,2022-04-26_16h02.44.134,Digit Span Task,2021.2.3,Win32,75.07507508,,,,,,,,,,,,,,,,,,,,,
,,,,,,5,0,5,0,1,hafeman,001,2022-04-26_16h02.44.134,Digit Span Task,2021.2.3,Win32,75.07507508,,,,,,,,,,,,,,,,,,,,,
,,,,,,,,,,,hafeman,001,2022-04-26_16h02.44.134,Digit Span Task,2021.2.3,Win32,75.07507508,,0,-0.024074074,-0.406481481,1,0,0,cont_button,0,1,1,1,1,6,179390,,,,,,
,,,,,,0,0,0,0,1,hafeman,001,2022-04-26_16h02.44.134,Digit Span Task,2021.2.3,Win32,75.07507508,,,,,,,,,,,,,,,,,,,,,
,,,,,,1,0,1,0,1,hafeman,001,2022-04-26_16h02.44.134,Digit Span Task,2021.2.3,Win32,75.07507508,,,,,,,,,,,,,,,,,,,,,
