start_mouse.x,start_mouse.y,start_mouse.leftButton,start_mouse.midButton,start_mouse.rightButton,start_mouse.clicked_name,digitLoop.thisRepN,digitLoop.thisTrialN,digitLoop.thisN,digitLoop.thisIndex,digitLoop.ran,participant,session,date,expName,psychopyVersion,OS,frameRate,textbox.text,correct,mouse.x,mouse.y,mouse.leftButton,mouse.midButton,mouse.rightButton,mouse.clicked_name,trials.thisRepN,trials.thisTrialN,trials.thisN,trials.thisIndex,trials.ran,digitSpan,digits,blocks.thisRepN,blocks.thisTrialN,blocks.thisN,blocks.thisIndex,blocks.ran,condition_file
0.00462963,-0.384259259,1,0,0,cont_button,0,0,0,0,1,,001,2022-05-10_15h44.50.317,Digit Span Task,2021.2.3,Win32,143.328078,,,,,,,,,,,,,,,,,,,,,
,,,,,,1,0,1,0,1,,001,2022-05-10_15h44.50.317,Digit Span Task,2021.2.3,Win32,143.328078,,,,,,,,,,,,,,,,,,,,,
,,,,,,2,0,2,0,1,,001,2022-05-10_15h44.50.317,Digit Span Task,2021.2.3,Win32,143.328078,,,,,,,,,,,,,,,,,,,,,
,,,,,,,,,,,,001,2022-05-10_15h44.50.317,Digit Span Task,2021.2.3,Win32,143.328078,217,1,0.052777778,-0.378703704,1,0,0,cont_button,0,0,0,0,1,3,217,,,,,,
,,,,,,0,0,0,0,1,,001,2022-05-10_15h44.50.317,Digit Span Task,2021.2.3,Win32,143.328078,,,,,,,,,,,,,,,,,,,,,
,,,,,,1,0,1,0,1,,001,2022-05-10_15h44.50.317,Digit Span Task,2021.2.3,Win32,143.328078,,,,,,,,,,,,,,,,,,,,,
,,,,,,2,0,2,0,1,,001,2022-05-10_15h44.50.317,Digit Span Task,2021.2.3,Win32,143.328078,,,,,,,,,,,,,,,,,,,,,
,,,,,,,,,,,,001,2022-05-10_15h44.50.317,Digit Span Task,2021.2.3,Win32,143.328078,"486
",0,-0.014814815,-0.388888889,1,0,0,cont_button,0,1,1,1,1,3,486,,,,,,
,,,,,,0,0,0,0,1,,001,2022-05-10_15h44.50.317,Digit Span Task,2021.2.3,Win32,143.328078,,,,,,,,,,,,,,,,,,,,,
,,,,,,1,0,1,0,1,,001,2022-05-10_15h44.50.317,Digit Span Task,2021.2.3,Win32,143.328078,,,,,,,,,,,,,,,,,,,,,
,,,,,,2,0,2,0,1,,001,2022-05-10_15h44.50.317,Digit Span Task,2021.2.3,Win32,143.328078,,,,,,,,,,,,,,,,,,,,,
,,,,,,,,,,,,001,2022-05-10_15h44.50.317,Digit Span Task,2021.2.3,Win32,143.328078,560,0,-0.081481481,-0.384259259,1,0,0,cont_button,0,2,2,2,1,3,760,,,,,,
,,,,,,,,,,,,001,2022-05-10_15h44.50.317,Digit Span Task,2021.2.3,Win32,143.328078,,,,,,,,,,,,,,,,0,0,0,0,1,three.xlsx
,,,,,,0,0,0,0,1,,001,2022-05-10_15h44.50.317,Digit Span Task,2021.2.3,Win32,143.328078,,,,,,,,,,,,,,,,,,,,,
,,,,,,1,0,1,0,1,,001,2022-05-10_15h44.50.317,Digit Span Task,2021.2.3,Win32,143.328078,,,,,,,,,,,,,,,,,,,,,
,,,,,,2,0,2,0,1,,001,2022-05-10_15h44.50.317,Digit Span Task,2021.2.3,Win32,143.328078,,,,,,,,,,,,,,,,,,,,,
,,,,,,3,0,3,0,1,,001,2022-05-10_15h44.50.317,Digit Span Task,2021.2.3,Win32,143.328078,,,,,,,,,,,,,,,,,,,,,
,,,,,,,,,,,,001,2022-05-10_15h44.50.317,Digit Span Task,2021.2.3,Win32,143.328078,3141,1,-0.091666667,-0.386111111,1,0,0,cont_button,0,0,0,0,1,4,3141,,,,,,
,,,,,,0,0,0,0,1,,001,2022-05-10_15h44.50.317,Digit Span Task,2021.2.3,Win32,143.328078,,,,,,,,,,,,,,,,,,,,,
,,,,,,1,0,1,0,1,,001,2022-05-10_15h44.50.317,Digit Span Task,2021.2.3,Win32,143.328078,,,,,,,,,,,,,,,,,,,,,
,,,,,,2,0,2,0,1,,001,2022-05-10_15h44.50.317,Digit Span Task,2021.2.3,Win32,143.328078,,,,,,,,,,,,,,,,,,,,,
,,,,,,3,0,3,0,1,,001,2022-05-10_15h44.50.317,Digit Span Task,2021.2.3,Win32,143.328078,,,,,,,,,,,,,,,,,,,,,
,,,,,,,,,,,,001,2022-05-10_15h44.50.317,Digit Span Task,2021.2.3,Win32,143.328078,6351,1,-0.015740741,-0.389814815,1,0,0,cont_button,0,1,1,1,1,4,6351,,,,,,
,,,,,,0,0,0,0,1,,001,2022-05-10_15h44.50.317,Digit Span Task,2021.2.3,Win32,143.328078,,,,,,,,,,,,,,,,,,,,,
,,,,,,1,0,1,0,1,,001,2022-05-10_15h44.50.317,Digit Span Task,2021.2.3,Win32,143.328078,,,,,,,,,,,,,,,,,,,,,
,,,,,,2,0,2,0,1,,001,2022-05-10_15h44.50.317,Digit Span Task,2021.2.3,Win32,143.328078,,,,,,,,,,,,,,,,,,,,,
,,,,,,3,0,3,0,1,,001,2022-05-10_15h44.50.317,Digit Span Task,2021.2.3,Win32,143.328078,,,,,,,,,,,,,,,,,,,,,
,,,,,,,,,,,,001,2022-05-10_15h44.50.317,Digit Span Task,2021.2.3,Win32,143.328078,2391,1,0.091666667,-0.42037037,1,0,0,cont_button,0,2,2,2,1,4,2391,,,,,,
,,,,,,,,,,,,001,2022-05-10_15h44.50.317,Digit Span Task,2021.2.3,Win32,143.328078,,,,,,,,,,,,,,,,0,1,1,1,1,four.xlsx
,,,,,,0,0,0,0,1,,001,2022-05-10_15h44.50.317,Digit Span Task,2021.2.3,Win32,143.328078,,,,,,,,,,,,,,,,,,,,,
,,,,,,1,0,1,0,1,,001,2022-05-10_15h44.50.317,Digit Span Task,2021.2.3,Win32,143.328078,,,,,,,,,,,,,,,,,,,,,
,,,,,,2,0,2,0,1,,001,2022-05-10_15h44.50.317,Digit Span Task,2021.2.3,Win32,143.328078,,,,,,,,,,,,,,,,,,,,,
,,,,,,3,0,3,0,1,,001,2022-05-10_15h44.50.317,Digit Span Task,2021.2.3,Win32,143.328078,,,,,,,,,,,,,,,,,,,,,
,,,,,,4,0,4,0,1,,001,2022-05-10_15h44.50.317,Digit Span Task,2021.2.3,Win32,143.328078,,,,,,,,,,,,,,,,,,,,,
,,,,,,,,,,,,001,2022-05-10_15h44.50.317,Digit Span Task,2021.2.3,Win32,143.328078,14932,1,0.062962963,-0.386111111,1,0,0,cont_button,0,0,0,0,1,5,14932,,,,,,
,,,,,,0,0,0,0,1,,001,2022-05-10_15h44.50.317,Digit Span Task,2021.2.3,Win32,143.328078,,,,,,,,,,,,,,,,,,,,,
,,,,,,1,0,1,0,1,,001,2022-05-10_15h44.50.317,Digit Span Task,2021.2.3,Win32,143.328078,,,,,,,,,,,,,,,,,,,,,
,,,,,,2,0,2,0,1,,001,2022-05-10_15h44.50.317,Digit Span Task,2021.2.3,Win32,143.328078,,,,,,,,,,,,,,,,,,,,,
,,,,,,3,0,3,0,1,,001,2022-05-10_15h44.50.317,Digit Span Task,2021.2.3,Win32,143.328078,,,,,,,,,,,,,,,,,,,,,
,,,,,,4,0,4,0,1,,001,2022-05-10_15h44.50.317,Digit Span Task,2021.2.3,Win32,143.328078,,,,,,,,,,,,,,,,,,,,,
,,,,,,,,,,,,001,2022-05-10_15h44.50.317,Digit Span Task,2021.2.3,Win32,143.328078,10646,1,0.090740741,-0.375925926,1,0,0,cont_button,0,1,1,1,1,5,10646,,,,,,
,,,,,,0,0,0,0,1,,001,2022-05-10_15h44.50.317,Digit Span Task,2021.2.3,Win32,143.328078,,,,,,,,,,,,,,,,,,,,,
,,,,,,1,0,1,0,1,,001,2022-05-10_15h44.50.317,Digit Span Task,2021.2.3,Win32,143.328078,,,,,,,,,,,,,,,,,,,,,
,,,,,,2,0,2,0,1,,001,2022-05-10_15h44.50.317,Digit Span Task,2021.2.3,Win32,143.328078,,,,,,,,,,,,,,,,,,,,,
,,,,,,3,0,3,0,1,,001,2022-05-10_15h44.50.317,Digit Span Task,2021.2.3,Win32,143.328078,,,,,,,,,,,,,,,,,,,,,
,,,,,,4,0,4,0,1,,001,2022-05-10_15h44.50.317,Digit Span Task,2021.2.3,Win32,143.328078,,,,,,,,,,,,,,,,,,,,,
,,,,,,,,,,,,001,2022-05-10_15h44.50.317,Digit Span Task,2021.2.3,Win32,143.328078,74832,1,-0.003703704,-0.410185185,1,0,0,cont_button,0,2,2,2,1,5,74832,,,,,,
,,,,,,,,,,,,001,2022-05-10_15h44.50.317,Digit Span Task,2021.2.3,Win32,143.328078,,,,,,,,,,,,,,,,0,2,2,2,1,five.xlsx
,,,,,,0,0,0,0,1,,001,2022-05-10_15h44.50.317,Digit Span Task,2021.2.3,Win32,143.328078,,,,,,,,,,,,,,,,,,,,,
,,,,,,1,0,1,0,1,,001,2022-05-10_15h44.50.317,Digit Span Task,2021.2.3,Win32,143.328078,,,,,,,,,,,,,,,,,,,,,
,,,,,,2,0,2,0,1,,001,2022-05-10_15h44.50.317,Digit Span Task,2021.2.3,Win32,143.328078,,,,,,,,,,,,,,,,,,,,,
,,,,,,3,0,3,0,1,,001,2022-05-10_15h44.50.317,Digit Span Task,2021.2.3,Win32,143.328078,,,,,,,,,,,,,,,,,,,,,
,,,,,,4,0,4,0,1,,001,2022-05-10_15h44.50.317,Digit Span Task,2021.2.3,Win32,143.328078,,,,,,,,,,,,,,,,,,,,,
,,,,,,5,0,5,0,1,,001,2022-05-10_15h44.50.317,Digit Span Task,2021.2.3,Win32,143.328078,,,,,,,,,,,,,,,,,,,,,
,,,,,,,,,,,,001,2022-05-10_15h44.50.317,Digit Span Task,2021.2.3,Win32,143.328078,934648,1,-0.072222222,-0.408333333,1,0,0,cont_button,0,0,0,0,1,6,934648,,,,,,
,,,,,,0,0,0,0,1,,001,2022-05-10_15h44.50.317,Digit Span Task,2021.2.3,Win32,143.328078,,,,,,,,,,,,,,,,,,,,,
,,,,,,1,0,1,0,1,,001,2022-05-10_15h44.50.317,Digit Span Task,2021.2.3,Win32,143.328078,,,,,,,,,,,,,,,,,,,,,
,,,,,,2,0,2,0,1,,001,2022-05-10_15h44.50.317,Digit Span Task,2021.2.3,Win32,143.328078,,,,,,,,,,,,,,,,,,,,,
,,,,,,3,0,3,0,1,,001,2022-05-10_15h44.50.317,Digit Span Task,2021.2.3,Win32,143.328078,,,,,,,,,,,,,,,,,,,,,
,,,,,,4,0,4,0,1,,001,2022-05-10_15h44.50.317,Digit Span Task,2021.2.3,Win32,143.328078,,,,,,,,,,,,,,,,,,,,,
,,,,,,5,0,5,0,1,,001,2022-05-10_15h44.50.317,Digit Span Task,2021.2.3,Win32,143.328078,,,,,,,,,,,,,,,,,,,,,
,,,,,,,,,,,,001,2022-05-10_15h44.50.317,Digit Span Task,2021.2.3,Win32,143.328078,179390,1,-0.025,-0.421296296,1,0,0,cont_button,0,1,1,1,1,6,179390,,,,,,
,,,,,,0,0,0,0,1,,001,2022-05-10_15h44.50.317,Digit Span Task,2021.2.3,Win32,143.328078,,,,,,,,,,,,,,,,,,,,,
,,,,,,1,0,1,0,1,,001,2022-05-10_15h44.50.317,Digit Span Task,2021.2.3,Win32,143.328078,,,,,,,,,,,,,,,,,,,,,
,,,,,,2,0,2,0,1,,001,2022-05-10_15h44.50.317,Digit Span Task,2021.2.3,Win32,143.328078,,,,,,,,,,,,,,,,,,,,,
,,,,,,3,0,3,0,1,,001,2022-05-10_15h44.50.317,Digit Span Task,2021.2.3,Win32,143.328078,,,,,,,,,,,,,,,,,,,,,
,,,,,,4,0,4,0,1,,001,2022-05-10_15h44.50.317,Digit Span Task,2021.2.3,Win32,143.328078,,,,,,,,,,,,,,,,,,,,,
,,,,,,5,0,5,0,1,,001,2022-05-10_15h44.50.317,Digit Span Task,2021.2.3,Win32,143.328078,,,,,,,,,,,,,,,,,,,,,
,,,,,,,,,,,,001,2022-05-10_15h44.50.317,Digit Span Task,2021.2.3,Win32,143.328078,408288,1,-0.039814815,-0.413888889,1,0,0,cont_button,0,2,2,2,1,6,408288,,,,,,
,,,,,,,,,,,,001,2022-05-10_15h44.50.317,Digit Span Task,2021.2.3,Win32,143.328078,,,,,,,,,,,,,,,,0,3,3,3,1,six.xlsx
,,,,,,0,0,0,0,1,,001,2022-05-10_15h44.50.317,Digit Span Task,2021.2.3,Win32,143.328078,,,,,,,,,,,,,,,,,,,,,
,,,,,,1,0,1,0,1,,001,2022-05-10_15h44.50.317,Digit Span Task,2021.2.3,Win32,143.328078,,,,,,,,,,,,,,,,,,,,,
,,,,,,2,0,2,0,1,,001,2022-05-10_15h44.50.317,Digit Span Task,2021.2.3,Win32,143.328078,,,,,,,,,,,,,,,,,,,,,
,,,,,,3,0,3,0,1,,001,2022-05-10_15h44.50.317,Digit Span Task,2021.2.3,Win32,143.328078,,,,,,,,,,,,,,,,,,,,,
,,,,,,4,0,4,0,1,,001,2022-05-10_15h44.50.317,Digit Span Task,2021.2.3,Win32,143.328078,,,,,,,,,,,,,,,,,,,,,
,,,,,,5,0,5,0,1,,001,2022-05-10_15h44.50.317,Digit Span Task,2021.2.3,Win32,143.328078,,,,,,,,,,,,,,,,,,,,,
,,,,,,6,0,6,0,1,,001,2022-05-10_15h44.50.317,Digit Span Task,2021.2.3,Win32,143.328078,,,,,,,,,,,,,,,,,,,,,
,,,,,,,,,,,,001,2022-05-10_15h44.50.317,Digit Span Task,2021.2.3,Win32,143.328078,4498237,1,-0.039814815,-0.413888889,1,0,0,cont_button,0,0,0,0,1,7,4498237,,,,,,
,,,,,,0,0,0,0,1,,001,2022-05-10_15h44.50.317,Digit Span Task,2021.2.3,Win32,143.328078,,,,,,,,,,,,,,,,,,,,,
,,,,,,1,0,1,0,1,,001,2022-05-10_15h44.50.317,Digit Span Task,2021.2.3,Win32,143.328078,,,,,,,,,,,,,,,,,,,,,
,,,,,,2,0,2,0,1,,001,2022-05-10_15h44.50.317,Digit Span Task,2021.2.3,Win32,143.328078,,,,,,,,,,,,,,,,,,,,,
,,,,,,3,0,3,0,1,,001,2022-05-10_15h44.50.317,Digit Span Task,2021.2.3,Win32,143.328078,,,,,,,,,,,,,,,,,,,,,
,,,,,,4,0,4,0,1,,001,2022-05-10_15h44.50.317,Digit Span Task,2021.2.3,Win32,143.328078,,,,,,,,,,,,,,,,,,,,,
,,,,,,5,0,5,0,1,,001,2022-05-10_15h44.50.317,Digit Span Task,2021.2.3,Win32,143.328078,,,,,,,,,,,,,,,,,,,,,
,,,,,,6,0,6,0,1,,001,2022-05-10_15h44.50.317,Digit Span Task,2021.2.3,Win32,143.328078,,,,,,,,,,,,,,,,,,,,,
,,,,,,,,,,,,001,2022-05-10_15h44.50.317,Digit Span Task,2021.2.3,Win32,143.328078,2544371,1,-0.037037037,-0.413888889,1,0,0,cont_button,0,1,1,1,1,7,2544371,,,,,,
,,,,,,0,0,0,0,1,,001,2022-05-10_15h44.50.317,Digit Span Task,2021.2.3,Win32,143.328078,,,,,,,,,,,,,,,,,,,,,
,,,,,,1,0,1,0,1,,001,2022-05-10_15h44.50.317,Digit Span Task,2021.2.3,Win32,143.328078,,,,,,,,,,,,,,,,,,,,,
,,,,,,2,0,2,0,1,,001,2022-05-10_15h44.50.317,Digit Span Task,2021.2.3,Win32,143.328078,,,,,,,,,,,,,,,,,,,,,
,,,,,,3,0,3,0,1,,001,2022-05-10_15h44.50.317,Digit Span Task,2021.2.3,Win32,143.328078,,,,,,,,,,,,,,,,,,,,,
,,,,,,4,0,4,0,1,,001,2022-05-10_15h44.50.317,Digit Span Task,2021.2.3,Win32,143.328078,,,,,,,,,,,,,,,,,,,,,
,,,,,,5,0,5,0,1,,001,2022-05-10_15h44.50.317,Digit Span Task,2021.2.3,Win32,143.328078,,,,,,,,,,,,,,,,,,,,,
,,,,,,6,0,6,0,1,,001,2022-05-10_15h44.50.317,Digit Span Task,2021.2.3,Win32,143.328078,,,,,,,,,,,,,,,,,,,,,
,,,,,,,,,,,,001,2022-05-10_15h44.50.317,Digit Span Task,2021.2.3,Win32,143.328078,8875085,1,-0.037037037,-0.413888889,1,0,0,cont_button,0,2,2,2,1,7,8875085,,,,,,
,,,,,,,,,,,,001,2022-05-10_15h44.50.317,Digit Span Task,2021.2.3,Win32,143.328078,,,,,,,,,,,,,,,,0,4,4,4,1,seven.xlsx
,,,,,,0,0,0,0,1,,001,2022-05-10_15h44.50.317,Digit Span Task,2021.2.3,Win32,143.328078,,,,,,,,,,,,,,,,,,,,,
,,,,,,1,0,1,0,1,,001,2022-05-10_15h44.50.317,Digit Span Task,2021.2.3,Win32,143.328078,,,,,,,,,,,,,,,,,,,,,
,,,,,,2,0,2,0,1,,001,2022-05-10_15h44.50.317,Digit Span Task,2021.2.3,Win32,143.328078,,,,,,,,,,,,,,,,,,,,,
,,,,,,3,0,3,0,1,,001,2022-05-10_15h44.50.317,Digit Span Task,2021.2.3,Win32,143.328078,,,,,,,,,,,,,,,,,,,,,
,,,,,,4,0,4,0,1,,001,2022-05-10_15h44.50.317,Digit Span Task,2021.2.3,Win32,143.328078,,,,,,,,,,,,,,,,,,,,,
,,,,,,5,0,5,0,1,,001,2022-05-10_15h44.50.317,Digit Span Task,2021.2.3,Win32,143.328078,,,,,,,,,,,,,,,,,,,,,
,,,,,,6,0,6,0,1,,001,2022-05-10_15h44.50.317,Digit Span Task,2021.2.3,Win32,143.328078,,,,,,,,,,,,,,,,,,,,,
,,,,,,7,0,7,0,1,,001,2022-05-10_15h44.50.317,Digit Span Task,2021.2.3,Win32,143.328078,,,,,,,,,,,,,,,,,,,,,
,,,,,,,,,,,,001,2022-05-10_15h44.50.317,Digit Span Task,2021.2.3,Win32,143.328078,46229408,1,-0.037037037,-0.413888889,1,0,0,cont_button,0,0,0,0,1,8,46229408,,,,,,
,,,,,,0,0,0,0,1,,001,2022-05-10_15h44.50.317,Digit Span Task,2021.2.3,Win32,143.328078,,,,,,,,,,,,,,,,,,,,,
,,,,,,1,0,1,0,1,,001,2022-05-10_15h44.50.317,Digit Span Task,2021.2.3,Win32,143.328078,,,,,,,,,,,,,,,,,,,,,
,,,,,,2,0,2,0,1,,001,2022-05-10_15h44.50.317,Digit Span Task,2021.2.3,Win32,143.328078,,,,,,,,,,,,,,,,,,,,,
,,,,,,3,0,3,0,1,,001,2022-05-10_15h44.50.317,Digit Span Task,2021.2.3,Win32,143.328078,,,,,,,,,,,,,,,,,,,,,
,,,,,,4,0,4,0,1,,001,2022-05-10_15h44.50.317,Digit Span Task,2021.2.3,Win32,143.328078,,,,,,,,,,,,,,,,,,,,,
,,,,,,5,0,5,0,1,,001,2022-05-10_15h44.50.317,Digit Span Task,2021.2.3,Win32,143.328078,,,,,,,,,,,,,,,,,,,,,
,,,,,,6,0,6,0,1,,001,2022-05-10_15h44.50.317,Digit Span Task,2021.2.3,Win32,143.328078,,,,,,,,,,,,,,,,,,,,,
,,,,,,7,0,7,0,1,,001,2022-05-10_15h44.50.317,Digit Span Task,2021.2.3,Win32,143.328078,,,,,,,,,,,,,,,,,,,,,
,,,,,,,,,,,,001,2022-05-10_15h44.50.317,Digit Span Task,2021.2.3,Win32,143.328078,70967882,1,-0.037037037,-0.413888889,1,0,0,cont_button,0,1,1,1,1,8,70967882,,,,,,
,,,,,,0,0,0,0,1,,001,2022-05-10_15h44.50.317,Digit Span Task,2021.2.3,Win32,143.328078,,,,,,,,,,,,,,,,,,,,,
,,,,,,1,0,1,0,1,,001,2022-05-10_15h44.50.317,Digit Span Task,2021.2.3,Win32,143.328078,,,,,,,,,,,,,,,,,,,,,
,,,,,,2,0,2,0,1,,001,2022-05-10_15h44.50.317,Digit Span Task,2021.2.3,Win32,143.328078,,,,,,,,,,,,,,,,,,,,,
,,,,,,3,0,3,0,1,,001,2022-05-10_15h44.50.317,Digit Span Task,2021.2.3,Win32,143.328078,,,,,,,,,,,,,,,,,,,,,
,,,,,,4,0,4,0,1,,001,2022-05-10_15h44.50.317,Digit Span Task,2021.2.3,Win32,143.328078,,,,,,,,,,,,,,,,,,,,,
,,,,,,5,0,5,0,1,,001,2022-05-10_15h44.50.317,Digit Span Task,2021.2.3,Win32,143.328078,,,,,,,,,,,,,,,,,,,,,
,,,,,,6,0,6,0,1,,001,2022-05-10_15h44.50.317,Digit Span Task,2021.2.3,Win32,143.328078,,,,,,,,,,,,,,,,,,,,,
,,,,,,7,0,7,0,1,,001,2022-05-10_15h44.50.317,Digit Span Task,2021.2.3,Win32,143.328078,,,,,,,,,,,,,,,,,,,,,
,,,,,,,,,,,,001,2022-05-10_15h44.50.317,Digit Span Task,2021.2.3,Win32,143.328078,27139301,0,-0.037037037,-0.413888889,1,0,0,cont_button,0,2,2,2,1,8,27139320,,,,,,
,,,,,,,,,,,,001,2022-05-10_15h44.50.317,Digit Span Task,2021.2.3,Win32,143.328078,,,,,,,,,,,,,,,,0,5,5,5,1,eight.xlsx
,,,,,,0,0,0,0,1,,001,2022-05-10_15h44.50.317,Digit Span Task,2021.2.3,Win32,143.328078,,,,,,,,,,,,,,,,,,,,,
,,,,,,1,0,1,0,1,,001,2022-05-10_15h44.50.317,Digit Span Task,2021.2.3,Win32,143.328078,,,,,,,,,,,,,,,,,,,,,
,,,,,,2,0,2,0,1,,001,2022-05-10_15h44.50.317,Digit Span Task,2021.2.3,Win32,143.328078,,,,,,,,,,,,,,,,,,,,,
,,,,,,3,0,3,0,1,,001,2022-05-10_15h44.50.317,Digit Span Task,2021.2.3,Win32,143.328078,,,,,,,,,,,,,,,,,,,,,
,,,,,,4,0,4,0,1,,001,2022-05-10_15h44.50.317,Digit Span Task,2021.2.3,Win32,143.328078,,,,,,,,,,,,,,,,,,,,,
,,,,,,5,0,5,0,1,,001,2022-05-10_15h44.50.317,Digit Span Task,2021.2.3,Win32,143.328078,,,,,,,,,,,,,,,,,,,,,
,,,,,,6,0,6,0,1,,001,2022-05-10_15h44.50.317,Digit Span Task,2021.2.3,Win32,143.328078,,,,,,,,,,,,,,,,,,,,,
,,,,,,7,0,7,0,1,,001,2022-05-10_15h44.50.317,Digit Span Task,2021.2.3,Win32,143.328078,,,,,,,,,,,,,,,,,,,,,
,,,,,,8,0,8,0,1,,001,2022-05-10_15h44.50.317,Digit Span Task,2021.2.3,Win32,143.328078,,,,,,,,,,,,,,,,,,,,,
,,,,,,,,,,,,001,2022-05-10_15h44.50.317,Digit Span Task,2021.2.3,Win32,143.328078,3683744,0,-0.037037037,-0.413888889,1,0,0,cont_button,0,0,0,0,1,9,368373442,,,,,,
,,,,,,0,0,0,0,1,,001,2022-05-10_15h44.50.317,Digit Span Task,2021.2.3,Win32,143.328078,,,,,,,,,,,,,,,,,,,,,
,,,,,,1,0,1,0,1,,001,2022-05-10_15h44.50.317,Digit Span Task,2021.2.3,Win32,143.328078,,,,,,,,,,,,,,,,,,,,,
,,,,,,2,0,2,0,1,,001,2022-05-10_15h44.50.317,Digit Span Task,2021.2.3,Win32,143.328078,,,,,,,,,,,,,,,,,,,,,
,,,,,,3,0,3,0,1,,001,2022-05-10_15h44.50.317,Digit Span Task,2021.2.3,Win32,143.328078,,,,,,,,,,,,,,,,,,,,,
,,,,,,4,0,4,0,1,,001,2022-05-10_15h44.50.317,Digit Span Task,2021.2.3,Win32,143.328078,,,,,,,,,,,,,,,,,,,,,
,,,,,,5,0,5,0,1,,001,2022-05-10_15h44.50.317,Digit Span Task,2021.2.3,Win32,143.328078,,,,,,,,,,,,,,,,,,,,,
,,,,,,6,0,6,0,1,,001,2022-05-10_15h44.50.317,Digit Span Task,2021.2.3,Win32,143.328078,,,,,,,,,,,,,,,,,,,,,
,,,,,,7,0,7,0,1,,001,2022-05-10_15h44.50.317,Digit Span Task,2021.2.3,Win32,143.328078,,,,,,,,,,,,,,,,,,,,,
,,,,,,8,0,8,0,1,,001,2022-05-10_15h44.50.317,Digit Span Task,2021.2.3,Win32,143.328078,,,,,,,,,,,,,,,,,,,,,
,,,,,,,,,,,,001,2022-05-10_15h44.50.317,Digit Span Task,2021.2.3,Win32,143.328078,576270919,1,-0.037037037,-0.413888889,1,0,0,cont_button,0,1,1,1,1,9,576270919,,,,,,
,,,,,,0,0,0,0,1,,001,2022-05-10_15h44.50.317,Digit Span Task,2021.2.3,Win32,143.328078,,,,,,,,,,,,,,,,,,,,,
,,,,,,1,0,1,0,1,,001,2022-05-10_15h44.50.317,Digit Span Task,2021.2.3,Win32,143.328078,,,,,,,,,,,,,,,,,,,,,
,,,,,,2,0,2,0,1,,001,2022-05-10_15h44.50.317,Digit Span Task,2021.2.3,Win32,143.328078,,,,,,,,,,,,,,,,,,,,,
,,,,,,3,0,3,0,1,,001,2022-05-10_15h44.50.317,Digit Span Task,2021.2.3,Win32,143.328078,,,,,,,,,,,,,,,,,,,,,
,,,,,,4,0,4,0,1,,001,2022-05-10_15h44.50.317,Digit Span Task,2021.2.3,Win32,143.328078,,,,,,,,,,,,,,,,,,,,,
,,,,,,5,0,5,0,1,,001,2022-05-10_15h44.50.317,Digit Span Task,2021.2.3,Win32,143.328078,,,,,,,,,,,,,,,,,,,,,
,,,,,,6,0,6,0,1,,001,2022-05-10_15h44.50.317,Digit Span Task,2021.2.3,Win32,143.328078,,,,,,,,,,,,,,,,,,,,,
,,,,,,7,0,7,0,1,,001,2022-05-10_15h44.50.317,Digit Span Task,2021.2.3,Win32,143.328078,,,,,,,,,,,,,,,,,,,,,
,,,,,,8,0,8,0,1,,001,2022-05-10_15h44.50.317,Digit Span Task,2021.2.3,Win32,143.328078,,,,,,,,,,,,,,,,,,,,,
,,,,,,,,,,,,001,2022-05-10_15h44.50.317,Digit Span Task,2021.2.3,Win32,143.328078,688655972,0,-0.037037037,-0.413888889,1,0,0,cont_button,0,2,2,2,1,9,688655957,,,,,,
,,,,,,,,,,,,001,2022-05-10_15h44.50.317,Digit Span Task,2021.2.3,Win32,143.328078,,,,,,,,,,,,,,,,0,6,6,6,1,nine.xlsx
,,,,,,0,0,0,0,1,,001,2022-05-10_15h44.50.317,Digit Span Task,2021.2.3,Win32,143.328078,,,,,,,,,,,,,,,,,,,,,
,,,,,,1,0,1,0,1,,001,2022-05-10_15h44.50.317,Digit Span Task,2021.2.3,Win32,143.328078,,,,,,,,,,,,,,,,,,,,,
,,,,,,2,0,2,0,1,,001,2022-05-10_15h44.50.317,Digit Span Task,2021.2.3,Win32,143.328078,,,,,,,,,,,,,,,,,,,,,
,,,,,,3,0,3,0,1,,001,2022-05-10_15h44.50.317,Digit Span Task,2021.2.3,Win32,143.328078,,,,,,,,,,,,,,,,,,,,,
,,,,,,4,0,4,0,1,,001,2022-05-10_15h44.50.317,Digit Span Task,2021.2.3,Win32,143.328078,,,,,,,,,,,,,,,,,,,,,
,,,,,,5,0,5,0,1,,001,2022-05-10_15h44.50.317,Digit Span Task,2021.2.3,Win32,143.328078,,,,,,,,,,,,,,,,,,,,,
,,,,,,6,0,6,0,1,,001,2022-05-10_15h44.50.317,Digit Span Task,2021.2.3,Win32,143.328078,,,,,,,,,,,,,,,,,,,,,
,,,,,,7,0,7,0,1,,001,2022-05-10_15h44.50.317,Digit Span Task,2021.2.3,Win32,143.328078,,,,,,,,,,,,,,,,,,,,,
,,,,,,8,0,8,0,1,,001,2022-05-10_15h44.50.317,Digit Span Task,2021.2.3,Win32,143.328078,,,,,,,,,,,,,,,,,,,,,
,,,,,,9,0,9,0,1,,001,2022-05-10_15h44.50.317,Digit Span Task,2021.2.3,Win32,143.328078,,,,,,,,,,,,,,,,,,,,,
,,,,,,,,,,,,001,2022-05-10_15h44.50.317,Digit Span Task,2021.2.3,Win32,143.328078,21551223,0,-0.080555556,-0.381481481,1,0,0,cont_button,0,0,0,0,1,10,6432900801,,,,,,
,,,,,,0,0,0,0,1,,001,2022-05-10_15h44.50.317,Digit Span Task,2021.2.3,Win32,143.328078,,,,,,,,,,,,,,,,,,,,,
,,,,,,1,0,1,0,1,,001,2022-05-10_15h44.50.317,Digit Span Task,2021.2.3,Win32,143.328078,,,,,,,,,,,,,,,,,,,,,
,,,,,,2,0,2,0,1,,001,2022-05-10_15h44.50.317,Digit Span Task,2021.2.3,Win32,143.328078,,,,,,,,,,,,,,,,,,,,,
,,,,,,3,0,3,0,1,,001,2022-05-10_15h44.50.317,Digit Span Task,2021.2.3,Win32,143.328078,,,,,,,,,,,,,,,,,,,,,
,,,,,,4,0,4,0,1,,001,2022-05-10_15h44.50.317,Digit Span Task,2021.2.3,Win32,143.328078,,,,,,,,,,,,,,,,,,,,,
,,,,,,5,0,5,0,1,,001,2022-05-10_15h44.50.317,Digit Span Task,2021.2.3,Win32,143.328078,,,,,,,,,,,,,,,,,,,,,
,,,,,,6,0,6,0,1,,001,2022-05-10_15h44.50.317,Digit Span Task,2021.2.3,Win32,143.328078,,,,,,,,,,,,,,,,,,,,,
,,,,,,7,0,7,0,1,,001,2022-05-10_15h44.50.317,Digit Span Task,2021.2.3,Win32,143.328078,,,,,,,,,,,,,,,,,,,,,
,,,,,,8,0,8,0,1,,001,2022-05-10_15h44.50.317,Digit Span Task,2021.2.3,Win32,143.328078,,,,,,,,,,,,,,,,,,,,,
,,,,,,9,0,9,0,1,,001,2022-05-10_15h44.50.317,Digit Span Task,2021.2.3,Win32,143.328078,,,,,,,,,,,,,,,,,,,,,
,,,,,,,,,,,,001,2022-05-10_15h44.50.317,Digit Span Task,2021.2.3,Win32,143.328078,51515311,0,0.042592593,-0.398148148,1,0,0,cont_button,0,1,1,1,1,10,8467348927,,,,,,
,,,,,,0,0,0,0,1,,001,2022-05-10_15h44.50.317,Digit Span Task,2021.2.3,Win32,143.328078,,,,,,,,,,,,,,,,,,,,,
,,,,,,1,0,1,0,1,,001,2022-05-10_15h44.50.317,Digit Span Task,2021.2.3,Win32,143.328078,,,,,,,,,,,,,,,,,,,,,
,,,,,,2,0,2,0,1,,001,2022-05-10_15h44.50.317,Digit Span Task,2021.2.3,Win32,143.328078,,,,,,,,,,,,,,,,,,,,,
,,,,,,3,0,3,0,1,,001,2022-05-10_15h44.50.317,Digit Span Task,2021.2.3,Win32,143.328078,,,,,,,,,,,,,,,,,,,,,
,,,,,,4,0,4,0,1,,001,2022-05-10_15h44.50.317,Digit Span Task,2021.2.3,Win32,143.328078,,,,,,,,,,,,,,,,,,,,,
,,,,,,5,0,5,0,1,,001,2022-05-10_15h44.50.317,Digit Span Task,2021.2.3,Win32,143.328078,,,,,,,,,,,,,,,,,,,,,
,,,,,,6,0,6,0,1,,001,2022-05-10_15h44.50.317,Digit Span Task,2021.2.3,Win32,143.328078,,,,,,,,,,,,,,,,,,,,,
,,,,,,7,0,7,0,1,,001,2022-05-10_15h44.50.317,Digit Span Task,2021.2.3,Win32,143.328078,,,,,,,,,,,,,,,,,,,,,
,,,,,,8,0,8,0,1,,001,2022-05-10_15h44.50.317,Digit Span Task,2021.2.3,Win32,143.328078,,,,,,,,,,,,,,,,,,,,,
,,,,,,9,0,9,0,1,,001,2022-05-10_15h44.50.317,Digit Span Task,2021.2.3,Win32,143.328078,,,,,,,,,,,,,,,,,,,,,
,,,,,,,,,,,,001,2022-05-10_15h44.50.317,Digit Span Task,2021.2.3,Win32,143.328078,9464132,0,0.058333333,-0.388888889,1,0,0,cont_button,0,2,2,2,1,10,4184946413,,,,,,
,,,,,,,,,,,,001,2022-05-10_15h44.50.317,Digit Span Task,2021.2.3,Win32,143.328078,,,,,,,,,,,,,,,,0,7,7,7,1,ten.xlsx
,,,,,,0,0,0,0,1,,001,2022-05-10_15h44.50.317,Digit Span Task,2021.2.3,Win32,143.328078,,,,,,,,,,,,,,,,,,,,,
,,,,,,1,0,1,0,1,,001,2022-05-10_15h44.50.317,Digit Span Task,2021.2.3,Win32,143.328078,,,,,,,,,,,,,,,,,,,,,
,,,,,,2,0,2,0,1,,001,2022-05-10_15h44.50.317,Digit Span Task,2021.2.3,Win32,143.328078,,,,,,,,,,,,,,,,,,,,,
,,,,,,3,0,3,0,1,,001,2022-05-10_15h44.50.317,Digit Span Task,2021.2.3,Win32,143.328078,,,,,,,,,,,,,,,,,,,,,
,,,,,,4,0,4,0,1,,001,2022-05-10_15h44.50.317,Digit Span Task,2021.2.3,Win32,143.328078,,,,,,,,,,,,,,,,,,,,,
,,,,,,5,0,5,0,1,,001,2022-05-10_15h44.50.317,Digit Span Task,2021.2.3,Win32,143.328078,,,,,,,,,,,,,,,,,,,,,
,,,,,,6,0,6,0,1,,001,2022-05-10_15h44.50.317,Digit Span Task,2021.2.3,Win32,143.328078,,,,,,,,,,,,,,,,,,,,,
,,,,,,7,0,7,0,1,,001,2022-05-10_15h44.50.317,Digit Span Task,2021.2.3,Win32,143.328078,,,,,,,,,,,,,,,,,,,,,
,,,,,,8,0,8,0,1,,001,2022-05-10_15h44.50.317,Digit Span Task,2021.2.3,Win32,143.328078,,,,,,,,,,,,,,,,,,,,,
,,,,,,9,0,9,0,1,,001,2022-05-10_15h44.50.317,Digit Span Task,2021.2.3,Win32,143.328078,,,,,,,,,,,,,,,,,,,,,
,,,,,,10,0,10,0,1,,001,2022-05-10_15h44.50.317,Digit Span Task,2021.2.3,Win32,143.328078,,,,,,,,,,,,,,,,,,,,,
,,,,,,,,,,,,001,2022-05-10_15h44.50.317,Digit Span Task,2021.2.3,Win32,143.328078,215561512,0,0.080555556,-0.374074074,1,0,0,cont_button,0,0,0,0,1,11,73290740563,,,,,,
,,,,,,0,0,0,0,1,,001,2022-05-10_15h44.50.317,Digit Span Task,2021.2.3,Win32,143.328078,,,,,,,,,,,,,,,,,,,,,
,,,,,,1,0,1,0,1,,001,2022-05-10_15h44.50.317,Digit Span Task,2021.2.3,Win32,143.328078,,,,,,,,,,,,,,,,,,,,,
,,,,,,2,0,2,0,1,,001,2022-05-10_15h44.50.317,Digit Span Task,2021.2.3,Win32,143.328078,,,,,,,,,,,,,,,,,,,,,
,,,,,,3,0,3,0,1,,001,2022-05-10_15h44.50.317,Digit Span Task,2021.2.3,Win32,143.328078,,,,,,,,,,,,,,,,,,,,,
,,,,,,4,0,4,0,1,,001,2022-05-10_15h44.50.317,Digit Span Task,2021.2.3,Win32,143.328078,,,,,,,,,,,,,,,,,,,,,
,,,,,,5,0,5,0,1,,001,2022-05-10_15h44.50.317,Digit Span Task,2021.2.3,Win32,143.328078,,,,,,,,,,,,,,,,,,,,,
,,,,,,6,0,6,0,1,,001,2022-05-10_15h44.50.317,Digit Span Task,2021.2.3,Win32,143.328078,,,,,,,,,,,,,,,,,,,,,
,,,,,,7,0,7,0,1,,001,2022-05-10_15h44.50.317,Digit Span Task,2021.2.3,Win32,143.328078,,,,,,,,,,,,,,,,,,,,,
,,,,,,8,0,8,0,1,,001,2022-05-10_15h44.50.317,Digit Span Task,2021.2.3,Win32,143.328078,,,,,,,,,,,,,,,,,,,,,
,,,,,,9,0,9,0,1,,001,2022-05-10_15h44.50.317,Digit Span Task,2021.2.3,Win32,143.328078,,,,,,,,,,,,,,,,,,,,,
,,,,,,10,0,10,0,1,,001,2022-05-10_15h44.50.317,Digit Span Task,2021.2.3,Win32,143.328078,,,,,,,,,,,,,,,,,,,,,
,,,,,,,,,,,,001,2022-05-10_15h44.50.317,Digit Span Task,2021.2.3,Win32,143.328078,135515315,0,0.076851852,-0.406481481,1,0,0,cont_button,0,1,1,1,1,11,74948772224,,,,,,
,,,,,,0,0,0,0,1,,001,2022-05-10_15h44.50.317,Digit Span Task,2021.2.3,Win32,143.328078,,,,,,,,,,,,,,,,,,,,,
,,,,,,1,0,1,0,1,,001,2022-05-10_15h44.50.317,Digit Span Task,2021.2.3,Win32,143.328078,,,,,,,,,,,,,,,,,,,,,
,,,,,,2,0,2,0,1,,001,2022-05-10_15h44.50.317,Digit Span Task,2021.2.3,Win32,143.328078,,,,,,,,,,,,,,,,,,,,,
,,,,,,3,0,3,0,1,,001,2022-05-10_15h44.50.317,Digit Span Task,2021.2.3,Win32,143.328078,,,,,,,,,,,,,,,,,,,,,
,,,,,,4,0,4,0,1,,001,2022-05-10_15h44.50.317,Digit Span Task,2021.2.3,Win32,143.328078,,,,,,,,,,,,,,,,,,,,,
,,,,,,5,0,5,0,1,,001,2022-05-10_15h44.50.317,Digit Span Task,2021.2.3,Win32,143.328078,,,,,,,,,,,,,,,,,,,,,
,,,,,,6,0,6,0,1,,001,2022-05-10_15h44.50.317,Digit Span Task,2021.2.3,Win32,143.328078,,,,,,,,,,,,,,,,,,,,,
,,,,,,7,0,7,0,1,,001,2022-05-10_15h44.50.317,Digit Span Task,2021.2.3,Win32,143.328078,,,,,,,,,,,,,,,,,,,,,
,,,,,,8,0,8,0,1,,001,2022-05-10_15h44.50.317,Digit Span Task,2021.2.3,Win32,143.328078,,,,,,,,,,,,,,,,,,,,,
,,,,,,9,0,9,0,1,,001,2022-05-10_15h44.50.317,Digit Span Task,2021.2.3,Win32,143.328078,,,,,,,,,,,,,,,,,,,,,
,,,,,,10,0,10,0,1,,001,2022-05-10_15h44.50.317,Digit Span Task,2021.2.3,Win32,143.328078,,,,,,,,,,,,,,,,,,,,,
,,,,,,,,,,,,001,2022-05-10_15h44.50.317,Digit Span Task,2021.2.3,Win32,143.328078,"511565
",0,0.033333333,-0.410185185,1,0,0,cont_button,0,2,2,2,1,11,97084622072,,,,,,
,,,,,,,,,,,,001,2022-05-10_15h44.50.317,Digit Span Task,2021.2.3,Win32,143.328078,,,,,,,,,,,,,,,,0,8,8,8,1,eleven.xlsx
,,,,,,0,0,0,0,1,,001,2022-05-10_15h44.50.317,Digit Span Task,2021.2.3,Win32,143.328078,,,,,,,,,,,,,,,,,,,,,
,,,,,,1,0,1,0,1,,001,2022-05-10_15h44.50.317,Digit Span Task,2021.2.3,Win32,143.328078,,,,,,,,,,,,,,,,,,,,,
,,,,,,2,0,2,0,1,,001,2022-05-10_15h44.50.317,Digit Span Task,2021.2.3,Win32,143.328078,,,,,,,,,,,,,,,,,,,,,
,,,,,,3,0,3,0,1,,001,2022-05-10_15h44.50.317,Digit Span Task,2021.2.3,Win32,143.328078,,,,,,,,,,,,,,,,,,,,,
,,,,,,4,0,4,0,1,,001,2022-05-10_15h44.50.317,Digit Span Task,2021.2.3,Win32,143.328078,,,,,,,,,,,,,,,,,,,,,
,,,,,,5,0,5,0,1,,001,2022-05-10_15h44.50.317,Digit Span Task,2021.2.3,Win32,143.328078,,,,,,,,,,,,,,,,,,,,,
,,,,,,6,0,6,0,1,,001,2022-05-10_15h44.50.317,Digit Span Task,2021.2.3,Win32,143.328078,,,,,,,,,,,,,,,,,,,,,
,,,,,,7,0,7,0,1,,001,2022-05-10_15h44.50.317,Digit Span Task,2021.2.3,Win32,143.328078,,,,,,,,,,,,,,,,,,,,,
,,,,,,8,0,8,0,1,,001,2022-05-10_15h44.50.317,Digit Span Task,2021.2.3,Win32,143.328078,,,,,,,,,,,,,,,,,,,,,
,,,,,,9,0,9,0,1,,001,2022-05-10_15h44.50.317,Digit Span Task,2021.2.3,Win32,143.328078,,,,,,,,,,,,,,,,,,,,,
,,,,,,10,0,10,0,1,,001,2022-05-10_15h44.50.317,Digit Span Task,2021.2.3,Win32,143.328078,,,,,,,,,,,,,,,,,,,,,
,,,,,,11,0,11,0,1,,001,2022-05-10_15h44.50.317,Digit Span Task,2021.2.3,Win32,143.328078,,,,,,,,,,,,,,,,,,,,,
,,,,,,,,,,,,001,2022-05-10_15h44.50.317,Digit Span Task,2021.2.3,Win32,143.328078,,0,-0.009259259,-0.396296296,1,0,0,cont_button,0,0,0,0,1,12,6.81346E+11,,,,,,
,,,,,,0,0,0,0,1,,001,2022-05-10_15h44.50.317,Digit Span Task,2021.2.3,Win32,143.328078,,,,,,,,,,,,,,,,,,,,,
,,,,,,1,0,1,0,1,,001,2022-05-10_15h44.50.317,Digit Span Task,2021.2.3,Win32,143.328078,,,,,,,,,,,,,,,,,,,,,
,,,,,,2,0,2,0,1,,001,2022-05-10_15h44.50.317,Digit Span Task,2021.2.3,Win32,143.328078,,,,,,,,,,,,,,,,,,,,,
,,,,,,3,0,3,0,1,,001,2022-05-10_15h44.50.317,Digit Span Task,2021.2.3,Win32,143.328078,,,,,,,,,,,,,,,,,,,,,
,,,,,,4,0,4,0,1,,001,2022-05-10_15h44.50.317,Digit Span Task,2021.2.3,Win32,143.328078,,,,,,,,,,,,,,,,,,,,,
,,,,,,5,0,5,0,1,,001,2022-05-10_15h44.50.317,Digit Span Task,2021.2.3,Win32,143.328078,,,,,,,,,,,,,,,,,,,,,
,,,,,,6,0,6,0,1,,001,2022-05-10_15h44.50.317,Digit Span Task,2021.2.3,Win32,143.328078,,,,,,,,,,,,,,,,,,,,,
,,,,,,7,0,7,0,1,,001,2022-05-10_15h44.50.317,Digit Span Task,2021.2.3,Win32,143.328078,,,,,,,,,,,,,,,,,,,,,
,,,,,,8,0,8,0,1,,001,2022-05-10_15h44.50.317,Digit Span Task,2021.2.3,Win32,143.328078,,,,,,,,,,,,,,,,,,,,,
,,,,,,9,0,9,0,1,,001,2022-05-10_15h44.50.317,Digit Span Task,2021.2.3,Win32,143.328078,,,,,,,,,,,,,,,,,,,,,
,,,,,,10,0,10,0,1,,001,2022-05-10_15h44.50.317,Digit Span Task,2021.2.3,Win32,143.328078,,,,,,,,,,,,,,,,,,,,,
,,,,,,11,0,11,0,1,,001,2022-05-10_15h44.50.317,Digit Span Task,2021.2.3,Win32,143.328078,,,,,,,,,,,,,,,,,,,,,
,,,,,,,,,,,,001,2022-05-10_15h44.50.317,Digit Span Task,2021.2.3,Win32,143.328078,97237956812,0,-0.039814815,-0.394444444,1,0,0,cont_button,0,1,1,1,1,12,8.7238E+11,,,,,,
,,,,,,0,0,0,0,1,,001,2022-05-10_15h44.50.317,Digit Span Task,2021.2.3,Win32,143.328078,,,,,,,,,,,,,,,,,,,,,
,,,,,,1,0,1,0,1,,001,2022-05-10_15h44.50.317,Digit Span Task,2021.2.3,Win32,143.328078,,,,,,,,,,,,,,,,,,,,,
,,,,,,2,0,2,0,1,,001,2022-05-10_15h44.50.317,Digit Span Task,2021.2.3,Win32,143.328078,,,,,,,,,,,,,,,,,,,,,
,,,,,,3,0,3,0,1,,001,2022-05-10_15h44.50.317,Digit Span Task,2021.2.3,Win32,143.328078,,,,,,,,,,,,,,,,,,,,,
,,,,,,4,0,4,0,1,,001,2022-05-10_15h44.50.317,Digit Span Task,2021.2.3,Win32,143.328078,,,,,,,,,,,,,,,,,,,,,
,,,,,,5,0,5,0,1,,001,2022-05-10_15h44.50.317,Digit Span Task,2021.2.3,Win32,143.328078,,,,,,,,,,,,,,,,,,,,,
,,,,,,6,0,6,0,1,,001,2022-05-10_15h44.50.317,Digit Span Task,2021.2.3,Win32,143.328078,,,,,,,,,,,,,,,,,,,,,
,,,,,,7,0,7,0,1,,001,2022-05-10_15h44.50.317,Digit Span Task,2021.2.3,Win32,143.328078,,,,,,,,,,,,,,,,,,,,,
,,,,,,8,0,8,0,1,,001,2022-05-10_15h44.50.317,Digit Span Task,2021.2.3,Win32,143.328078,,,,,,,,,,,,,,,,,,,,,
,,,,,,9,0,9,0,1,,001,2022-05-10_15h44.50.317,Digit Span Task,2021.2.3,Win32,143.328078,,,,,,,,,,,,,,,,,,,,,
,,,,,,10,0,10,0,1,,001,2022-05-10_15h44.50.317,Digit Span Task,2021.2.3,Win32,143.328078,,,,,,,,,,,,,,,,,,,,,
,,,,,,11,0,11,0,1,,001,2022-05-10_15h44.50.317,Digit Span Task,2021.2.3,Win32,143.328078,,,,,,,,,,,,,,,,,,,,,
,,,,,,,,,,,,001,2022-05-10_15h44.50.317,Digit Span Task,2021.2.3,Win32,143.328078,24012240742,0,-0.006481481,-0.39537037,1,0,0,cont_button,0,2,2,2,1,12,2.41072E+11,,,,,,
,,,,,,,,,,,,001,2022-05-10_15h44.50.317,Digit Span Task,2021.2.3,Win32,143.328078,,,,,,,,,,,,,,,,0,9,9,9,1,twelve.xlsx
,,,,,,0,0,0,0,1,,001,2022-05-10_15h44.50.317,Digit Span Task,2021.2.3,Win32,143.328078,,,,,,,,,,,,,,,,,,,,,
,,,,,,1,0,1,0,1,,001,2022-05-10_15h44.50.317,Digit Span Task,2021.2.3,Win32,143.328078,,,,,,,,,,,,,,,,,,,,,
,,,,,,2,0,2,0,1,,001,2022-05-10_15h44.50.317,Digit Span Task,2021.2.3,Win32,143.328078,,,,,,,,,,,,,,,,,,,,,
,,,,,,,,,,,,001,2022-05-10_15h44.50.317,Digit Span Task,2021.2.3,Win32,143.328078,217,1,-0.063888889,-0.418518519,1,0,0,cont_button,0,0,0,0,1,3,217,,,,,,
,,,,,,0,0,0,0,1,,001,2022-05-10_15h44.50.317,Digit Span Task,2021.2.3,Win32,143.328078,,,,,,,,,,,,,,,,,,,,,
,,,,,,1,0,1,0,1,,001,2022-05-10_15h44.50.317,Digit Span Task,2021.2.3,Win32,143.328078,,,,,,,,,,,,,,,,,,,,,
,,,,,,2,0,2,0,1,,001,2022-05-10_15h44.50.317,Digit Span Task,2021.2.3,Win32,143.328078,,,,,,,,,,,,,,,,,,,,,
