start_mouse.x,start_mouse.y,start_mouse.leftButton,start_mouse.midButton,start_mouse.rightButton,start_mouse.clicked_name,digitLoop.thisRepN,digitLoop.thisTrialN,digitLoop.thisN,digitLoop.thisIndex,digitLoop.ran,participant,session,date,expName,psychopyVersion,OS,frameRate,textbox.text,correct,mouse.x,mouse.y,mouse.leftButton,mouse.midButton,mouse.rightButton,mouse.clicked_name,trials.thisRepN,trials.thisTrialN,trials.thisN,trials.thisIndex,trials.ran,digitSpan,digits,blocks.thisRepN,blocks.thisTrialN,blocks.thisN,blocks.thisIndex,blocks.ran,condition_file
0.059259259,-0.39537037,1,0,0,cont_button,0,0,0,0,1,,001,2022-04-26_15h44.05.923,Digit Span Task,2021.2.3,Win32,74.13447995,,,,,,,,,,,,,,,,,,,,,
,,,,,,1,0,1,0,1,,001,2022-04-26_15h44.05.923,Digit Span Task,2021.2.3,Win32,74.13447995,,,,,,,,,,,,,,,,,,,,,
,,,,,,2,0,2,0,1,,001,2022-04-26_15h44.05.923,Digit Span Task,2021.2.3,Win32,74.13447995,,,,,,,,,,,,,,,,,,,,,
,,,,,,,,,,,,001,2022-04-26_15h44.05.923,Digit Span Task,2021.2.3,Win32,74.13447995,217,1,0.000925926,-0.390740741,1,0,0,cont_button,0,0,0,0,1,3,217,,,,,,
,,,,,,0,0,0,0,1,,001,2022-04-26_15h44.05.923,Digit Span Task,2021.2.3,Win32,74.13447995,,,,,,,,,,,,,,,,,,,,,
,,,,,,1,0,1,0,1,,001,2022-04-26_15h44.05.923,Digit Span Task,2021.2.3,Win32,74.13447995,,,,,,,,,,,,,,,,,,,,,
,,,,,,2,0,2,0,1,,001,2022-04-26_15h44.05.923,Digit Span Task,2021.2.3,Win32,74.13447995,,,,,,,,,,,,,,,,,,,,,
,,,,,,,,,,,,001,2022-04-26_15h44.05.923,Digit Span Task,2021.2.3,Win32,74.13447995,226,0,0.019444444,-0.388888889,1,0,0,cont_button,0,1,1,1,1,3,486,,,,,,
,,,,,,0,0,0,0,1,,001,2022-04-26_15h44.05.923,Digit Span Task,2021.2.3,Win32,74.13447995,,,,,,,,,,,,,,,,,,,,,
,,,,,,1,0,1,0,1,,001,2022-04-26_15h44.05.923,Digit Span Task,2021.2.3,Win32,74.13447995,,,,,,,,,,,,,,,,,,,,,
,,,,,,2,0,2,0,1,,001,2022-04-26_15h44.05.923,Digit Span Task,2021.2.3,Win32,74.13447995,,,,,,,,,,,,,,,,,,,,,
,,,,,,,,,,,,001,2022-04-26_15h44.05.923,Digit Span Task,2021.2.3,Win32,74.13447995,760,1,0.081481481,-0.413888889,1,0,0,cont_button,0,2,2,2,1,3,760,,,,,,
,,,,,,,,,,,,001,2022-04-26_15h44.05.923,Digit Span Task,2021.2.3,Win32,74.13447995,,,,,,,,,,,,,,,,0,0,0,0,1,three.xlsx
,,,,,,0,0,0,0,1,,001,2022-04-26_15h44.05.923,Digit Span Task,2021.2.3,Win32,74.13447995,,,,,,,,,,,,,,,,,,,,,
,,,,,,1,0,1,0,1,,001,2022-04-26_15h44.05.923,Digit Span Task,2021.2.3,Win32,74.13447995,,,,,,,,,,,,,,,,,,,,,
,,,,,,2,0,2,0,1,,001,2022-04-26_15h44.05.923,Digit Span Task,2021.2.3,Win32,74.13447995,,,,,,,,,,,,,,,,,,,,,
,,,,,,3,0,3,0,1,,001,2022-04-26_15h44.05.923,Digit Span Task,2021.2.3,Win32,74.13447995,,,,,,,,,,,,,,,,,,,,,
,,,,,,,,,,,,001,2022-04-26_15h44.05.923,Digit Span Task,2021.2.3,Win32,74.13447995,000,0,0.001851852,-0.405555556,1,0,0,cont_button,0,0,0,0,1,4,3141,,,,,,
,,,,,,0,0,0,0,1,,001,2022-04-26_15h44.05.923,Digit Span Task,2021.2.3,Win32,74.13447995,,,,,,,,,,,,,,,,,,,,,
,,,,,,1,0,1,0,1,,001,2022-04-26_15h44.05.923,Digit Span Task,2021.2.3,Win32,74.13447995,,,,,,,,,,,,,,,,,,,,,
,,,,,,2,0,2,0,1,,001,2022-04-26_15h44.05.923,Digit Span Task,2021.2.3,Win32,74.13447995,,,,,,,,,,,,,,,,,,,,,
,,,,,,3,0,3,0,1,,001,2022-04-26_15h44.05.923,Digit Span Task,2021.2.3,Win32,74.13447995,,,,,,,,,,,,,,,,,,,,,
,,,,,,,,,,,,001,2022-04-26_15h44.05.923,Digit Span Task,2021.2.3,Win32,74.13447995,51,0,0.019444444,-0.386111111,1,0,0,cont_button,0,1,1,1,1,4,6351,,,,,,
,,,,,,0,0,0,0,1,,001,2022-04-26_15h44.05.923,Digit Span Task,2021.2.3,Win32,74.13447995,,,,,,,,,,,,,,,,,,,,,
,,,,,,1,0,1,0,1,,001,2022-04-26_15h44.05.923,Digit Span Task,2021.2.3,Win32,74.13447995,,,,,,,,,,,,,,,,,,,,,
,,,,,,2,0,2,0,1,,001,2022-04-26_15h44.05.923,Digit Span Task,2021.2.3,Win32,74.13447995,,,,,,,,,,,,,,,,,,,,,
,,,,,,3,0,3,0,1,,001,2022-04-26_15h44.05.923,Digit Span Task,2021.2.3,Win32,74.13447995,,,,,,,,,,,,,,,,,,,,,
,,,,,,,,,,,,001,2022-04-26_15h44.05.923,Digit Span Task,2021.2.3,Win32,74.13447995,000,0,0.001851852,-0.396296296,1,0,0,cont_button,0,2,2,2,1,4,2391,,,,,,
,,,,,,,,,,,,001,2022-04-26_15h44.05.923,Digit Span Task,2021.2.3,Win32,74.13447995,,,,,,,,,,,,,,,,0,1,1,1,1,four.xlsx
,,,,,,0,0,0,0,1,,001,2022-04-26_15h44.05.923,Digit Span Task,2021.2.3,Win32,74.13447995,,,,,,,,,,,,,,,,,,,,,
,,,,,,1,0,1,0,1,,001,2022-04-26_15h44.05.923,Digit Span Task,2021.2.3,Win32,74.13447995,,,,,,,,,,,,,,,,,,,,,
,,,,,,2,0,2,0,1,,001,2022-04-26_15h44.05.923,Digit Span Task,2021.2.3,Win32,74.13447995,,,,,,,,,,,,,,,,,,,,,
,,,,,,3,0,3,0,1,,001,2022-04-26_15h44.05.923,Digit Span Task,2021.2.3,Win32,74.13447995,,,,,,,,,,,,,,,,,,,,,
,,,,,,4,0,4,0,1,,001,2022-04-26_15h44.05.923,Digit Span Task,2021.2.3,Win32,74.13447995,,,,,,,,,,,,,,,,,,,,,
,,,,,,,,,,,,001,2022-04-26_15h44.05.923,Digit Span Task,2021.2.3,Win32,74.13447995,333,0,0.062037037,-0.394444444,1,0,0,cont_button,0,0,0,0,1,5,14932,,,,,,
,,,,,,0,0,0,0,1,,001,2022-04-26_15h44.05.923,Digit Span Task,2021.2.3,Win32,74.13447995,,,,,,,,,,,,,,,,,,,,,
,,,,,,1,0,1,0,1,,001,2022-04-26_15h44.05.923,Digit Span Task,2021.2.3,Win32,74.13447995,,,,,,,,,,,,,,,,,,,,,
,,,,,,2,0,2,0,1,,001,2022-04-26_15h44.05.923,Digit Span Task,2021.2.3,Win32,74.13447995,,,,,,,,,,,,,,,,,,,,,
,,,,,,3,0,3,0,1,,001,2022-04-26_15h44.05.923,Digit Span Task,2021.2.3,Win32,74.13447995,,,,,,,,,,,,,,,,,,,,,
,,,,,,4,0,4,0,1,,001,2022-04-26_15h44.05.923,Digit Span Task,2021.2.3,Win32,74.13447995,,,,,,,,,,,,,,,,,,,,,
,,,,,,,,,,,,001,2022-04-26_15h44.05.923,Digit Span Task,2021.2.3,Win32,74.13447995,10646,1,-0.081481481,-0.392592593,1,0,0,cont_button,0,1,1,1,1,5,10646,,,,,,
,,,,,,0,0,0,0,1,,001,2022-04-26_15h44.05.923,Digit Span Task,2021.2.3,Win32,74.13447995,,,,,,,,,,,,,,,,,,,,,
,,,,,,1,0,1,0,1,,001,2022-04-26_15h44.05.923,Digit Span Task,2021.2.3,Win32,74.13447995,,,,,,,,,,,,,,,,,,,,,
,,,,,,2,0,2,0,1,,001,2022-04-26_15h44.05.923,Digit Span Task,2021.2.3,Win32,74.13447995,,,,,,,,,,,,,,,,,,,,,
,,,,,,3,0,3,0,1,,001,2022-04-26_15h44.05.923,Digit Span Task,2021.2.3,Win32,74.13447995,,,,,,,,,,,,,,,,,,,,,
,,,,,,4,0,4,0,1,,001,2022-04-26_15h44.05.923,Digit Span Task,2021.2.3,Win32,74.13447995,,,,,,,,,,,,,,,,,,,,,
,,,,,,,,,,,,001,2022-04-26_15h44.05.923,Digit Span Task,2021.2.3,Win32,74.13447995,,0,-0.008333333,-0.410185185,1,0,0,cont_button,0,2,2,2,1,5,74832,,,,,,
,,,,,,,,,,,,001,2022-04-26_15h44.05.923,Digit Span Task,2021.2.3,Win32,74.13447995,,,,,,,,,,,,,,,,0,2,2,2,1,five.xlsx
,,,,,,0,0,0,0,1,,001,2022-04-26_15h44.05.923,Digit Span Task,2021.2.3,Win32,74.13447995,,,,,,,,,,,,,,,,,,,,,
,,,,,,1,0,1,0,1,,001,2022-04-26_15h44.05.923,Digit Span Task,2021.2.3,Win32,74.13447995,,,,,,,,,,,,,,,,,,,,,
,,,,,,2,0,2,0,1,,001,2022-04-26_15h44.05.923,Digit Span Task,2021.2.3,Win32,74.13447995,,,,,,,,,,,,,,,,,,,,,
,,,,,,3,0,3,0,1,,001,2022-04-26_15h44.05.923,Digit Span Task,2021.2.3,Win32,74.13447995,,,,,,,,,,,,,,,,,,,,,
,,,,,,4,0,4,0,1,,001,2022-04-26_15h44.05.923,Digit Span Task,2021.2.3,Win32,74.13447995,,,,,,,,,,,,,,,,,,,,,
,,,,,,5,0,5,0,1,,001,2022-04-26_15h44.05.923,Digit Span Task,2021.2.3,Win32,74.13447995,,,,,,,,,,,,,,,,,,,,,
,,,,,,,,,,,,001,2022-04-26_15h44.05.923,Digit Span Task,2021.2.3,Win32,74.13447995,,0,-0.007407407,-0.399074074,1,0,0,cont_button,0,0,0,0,1,6,934648,,,,,,
,,,,,,0,0,0,0,1,,001,2022-04-26_15h44.05.923,Digit Span Task,2021.2.3,Win32,74.13447995,,,,,,,,,,,,,,,,,,,,,
,,,,,,1,0,1,0,1,,001,2022-04-26_15h44.05.923,Digit Span Task,2021.2.3,Win32,74.13447995,,,,,,,,,,,,,,,,,,,,,
,,,,,,2,0,2,0,1,,001,2022-04-26_15h44.05.923,Digit Span Task,2021.2.3,Win32,74.13447995,,,,,,,,,,,,,,,,,,,,,
,,,,,,3,0,3,0,1,,001,2022-04-26_15h44.05.923,Digit Span Task,2021.2.3,Win32,74.13447995,,,,,,,,,,,,,,,,,,,,,
,,,,,,4,0,4,0,1,,001,2022-04-26_15h44.05.923,Digit Span Task,2021.2.3,Win32,74.13447995,,,,,,,,,,,,,,,,,,,,,
,,,,,,5,0,5,0,1,,001,2022-04-26_15h44.05.923,Digit Span Task,2021.2.3,Win32,74.13447995,,,,,,,,,,,,,,,,,,,,,
,,,,,,,,,,,,001,2022-04-26_15h44.05.923,Digit Span Task,2021.2.3,Win32,74.13447995,,0,-0.007407407,-0.399074074,1,0,0,cont_button,0,1,1,1,1,6,179390,,,,,,
,,,,,,0,0,0,0,1,,001,2022-04-26_15h44.05.923,Digit Span Task,2021.2.3,Win32,74.13447995,,,,,,,,,,,,,,,,,,,,,
,,,,,,1,0,1,0,1,,001,2022-04-26_15h44.05.923,Digit Span Task,2021.2.3,Win32,74.13447995,,,,,,,,,,,,,,,,,,,,,
,,,,,,2,0,2,0,1,,001,2022-04-26_15h44.05.923,Digit Span Task,2021.2.3,Win32,74.13447995,,,,,,,,,,,,,,,,,,,,,
,,,,,,3,0,3,0,1,,001,2022-04-26_15h44.05.923,Digit Span Task,2021.2.3,Win32,74.13447995,,,,,,,,,,,,,,,,,,,,,
,,,,,,4,0,4,0,1,,001,2022-04-26_15h44.05.923,Digit Span Task,2021.2.3,Win32,74.13447995,,,,,,,,,,,,,,,,,,,,,
,,,,,,5,0,5,0,1,,001,2022-04-26_15h44.05.923,Digit Span Task,2021.2.3,Win32,74.13447995,,,,,,,,,,,,,,,,,,,,,
,,,,,,,,,,,,001,2022-04-26_15h44.05.923,Digit Span Task,2021.2.3,Win32,74.13447995,408288,1,0.016666667,-0.413888889,1,0,0,cont_button,0,2,2,2,1,6,408288,,,,,,
,,,,,,,,,,,,001,2022-04-26_15h44.05.923,Digit Span Task,2021.2.3,Win32,74.13447995,,,,,,,,,,,,,,,,0,3,3,3,1,six.xlsx
,,,,,,0,0,0,0,1,,001,2022-04-26_15h44.05.923,Digit Span Task,2021.2.3,Win32,74.13447995,,,,,,,,,,,,,,,,,,,,,
,,,,,,1,0,1,0,1,,001,2022-04-26_15h44.05.923,Digit Span Task,2021.2.3,Win32,74.13447995,,,,,,,,,,,,,,,,,,,,,
,,,,,,2,0,2,0,1,,001,2022-04-26_15h44.05.923,Digit Span Task,2021.2.3,Win32,74.13447995,,,,,,,,,,,,,,,,,,,,,
,,,,,,3,0,3,0,1,,001,2022-04-26_15h44.05.923,Digit Span Task,2021.2.3,Win32,74.13447995,,,,,,,,,,,,,,,,,,,,,
,,,,,,4,0,4,0,1,,001,2022-04-26_15h44.05.923,Digit Span Task,2021.2.3,Win32,74.13447995,,,,,,,,,,,,,,,,,,,,,
,,,,,,5,0,5,0,1,,001,2022-04-26_15h44.05.923,Digit Span Task,2021.2.3,Win32,74.13447995,,,,,,,,,,,,,,,,,,,,,
,,,,,,6,0,6,0,1,,001,2022-04-26_15h44.05.923,Digit Span Task,2021.2.3,Win32,74.13447995,,,,,,,,,,,,,,,,,,,,,
,,,,,,,,,,,,001,2022-04-26_15h44.05.923,Digit Span Task,2021.2.3,Win32,74.13447995,4498237,1,0.044444444,-0.403703704,1,0,0,cont_button,0,0,0,0,1,7,4498237,,,,,,
,,,,,,0,0,0,0,1,,001,2022-04-26_15h44.05.923,Digit Span Task,2021.2.3,Win32,74.13447995,,,,,,,,,,,,,,,,,,,,,
,,,,,,1,0,1,0,1,,001,2022-04-26_15h44.05.923,Digit Span Task,2021.2.3,Win32,74.13447995,,,,,,,,,,,,,,,,,,,,,
,,,,,,2,0,2,0,1,,001,2022-04-26_15h44.05.923,Digit Span Task,2021.2.3,Win32,74.13447995,,,,,,,,,,,,,,,,,,,,,
,,,,,,3,0,3,0,1,,001,2022-04-26_15h44.05.923,Digit Span Task,2021.2.3,Win32,74.13447995,,,,,,,,,,,,,,,,,,,,,
,,,,,,4,0,4,0,1,,001,2022-04-26_15h44.05.923,Digit Span Task,2021.2.3,Win32,74.13447995,,,,,,,,,,,,,,,,,,,,,
,,,,,,5,0,5,0,1,,001,2022-04-26_15h44.05.923,Digit Span Task,2021.2.3,Win32,74.13447995,,,,,,,,,,,,,,,,,,,,,
,,,,,,6,0,6,0,1,,001,2022-04-26_15h44.05.923,Digit Span Task,2021.2.3,Win32,74.13447995,,,,,,,,,,,,,,,,,,,,,
,,,,,,,,,,,,001,2022-04-26_15h44.05.923,Digit Span Task,2021.2.3,Win32,74.13447995,2544371,1,0.068518519,-0.401851852,1,0,0,cont_button,0,1,1,1,1,7,2544371,,,,,,
,,,,,,0,0,0,0,1,,001,2022-04-26_15h44.05.923,Digit Span Task,2021.2.3,Win32,74.13447995,,,,,,,,,,,,,,,,,,,,,
,,,,,,1,0,1,0,1,,001,2022-04-26_15h44.05.923,Digit Span Task,2021.2.3,Win32,74.13447995,,,,,,,,,,,,,,,,,,,,,
,,,,,,2,0,2,0,1,,001,2022-04-26_15h44.05.923,Digit Span Task,2021.2.3,Win32,74.13447995,,,,,,,,,,,,,,,,,,,,,
,,,,,,3,0,3,0,1,,001,2022-04-26_15h44.05.923,Digit Span Task,2021.2.3,Win32,74.13447995,,,,,,,,,,,,,,,,,,,,,
,,,,,,4,0,4,0,1,,001,2022-04-26_15h44.05.923,Digit Span Task,2021.2.3,Win32,74.13447995,,,,,,,,,,,,,,,,,,,,,
,,,,,,5,0,5,0,1,,001,2022-04-26_15h44.05.923,Digit Span Task,2021.2.3,Win32,74.13447995,,,,,,,,,,,,,,,,,,,,,
,,,,,,6,0,6,0,1,,001,2022-04-26_15h44.05.923,Digit Span Task,2021.2.3,Win32,74.13447995,,,,,,,,,,,,,,,,,,,,,
,,,,,,,,,,,,001,2022-04-26_15h44.05.923,Digit Span Task,2021.2.3,Win32,74.13447995,8875085,1,0.027777778,-0.375925926,1,0,0,cont_button,0,2,2,2,1,7,8875085,,,,,,
,,,,,,,,,,,,001,2022-04-26_15h44.05.923,Digit Span Task,2021.2.3,Win32,74.13447995,,,,,,,,,,,,,,,,0,4,4,4,1,seven.xlsx
,,,,,,0,0,0,0,1,,001,2022-04-26_15h44.05.923,Digit Span Task,2021.2.3,Win32,74.13447995,,,,,,,,,,,,,,,,,,,,,
,,,,,,1,0,1,0,1,,001,2022-04-26_15h44.05.923,Digit Span Task,2021.2.3,Win32,74.13447995,,,,,,,,,,,,,,,,,,,,,
,,,,,,2,0,2,0,1,,001,2022-04-26_15h44.05.923,Digit Span Task,2021.2.3,Win32,74.13447995,,,,,,,,,,,,,,,,,,,,,
,,,,,,3,0,3,0,1,,001,2022-04-26_15h44.05.923,Digit Span Task,2021.2.3,Win32,74.13447995,,,,,,,,,,,,,,,,,,,,,
,,,,,,4,0,4,0,1,,001,2022-04-26_15h44.05.923,Digit Span Task,2021.2.3,Win32,74.13447995,,,,,,,,,,,,,,,,,,,,,
,,,,,,5,0,5,0,1,,001,2022-04-26_15h44.05.923,Digit Span Task,2021.2.3,Win32,74.13447995,,,,,,,,,,,,,,,,,,,,,
,,,,,,6,0,6,0,1,,001,2022-04-26_15h44.05.923,Digit Span Task,2021.2.3,Win32,74.13447995,,,,,,,,,,,,,,,,,,,,,
,,,,,,7,0,7,0,1,,001,2022-04-26_15h44.05.923,Digit Span Task,2021.2.3,Win32,74.13447995,,,,,,,,,,,,,,,,,,,,,
,,,,,,,,,,,,001,2022-04-26_15h44.05.923,Digit Span Task,2021.2.3,Win32,74.13447995,46229408,1,0.033333333,-0.40462963,1,0,0,cont_button,0,0,0,0,1,8,46229408,,,,,,
,,,,,,0,0,0,0,1,,001,2022-04-26_15h44.05.923,Digit Span Task,2021.2.3,Win32,74.13447995,,,,,,,,,,,,,,,,,,,,,
,,,,,,1,0,1,0,1,,001,2022-04-26_15h44.05.923,Digit Span Task,2021.2.3,Win32,74.13447995,,,,,,,,,,,,,,,,,,,,,
,,,,,,2,0,2,0,1,,001,2022-04-26_15h44.05.923,Digit Span Task,2021.2.3,Win32,74.13447995,,,,,,,,,,,,,,,,,,,,,
,,,,,,3,0,3,0,1,,001,2022-04-26_15h44.05.923,Digit Span Task,2021.2.3,Win32,74.13447995,,,,,,,,,,,,,,,,,,,,,
,,,,,,4,0,4,0,1,,001,2022-04-26_15h44.05.923,Digit Span Task,2021.2.3,Win32,74.13447995,,,,,,,,,,,,,,,,,,,,,
,,,,,,5,0,5,0,1,,001,2022-04-26_15h44.05.923,Digit Span Task,2021.2.3,Win32,74.13447995,,,,,,,,,,,,,,,,,,,,,
,,,,,,6,0,6,0,1,,001,2022-04-26_15h44.05.923,Digit Span Task,2021.2.3,Win32,74.13447995,,,,,,,,,,,,,,,,,,,,,
,,,,,,7,0,7,0,1,,001,2022-04-26_15h44.05.923,Digit Span Task,2021.2.3,Win32,74.13447995,,,,,,,,,,,,,,,,,,,,,
,,,,,,,,,,,,001,2022-04-26_15h44.05.923,Digit Span Task,2021.2.3,Win32,74.13447995,70967882,1,-0.039814815,-0.384259259,1,0,0,cont_button,0,1,1,1,1,8,70967882,,,,,,
,,,,,,0,0,0,0,1,,001,2022-04-26_15h44.05.923,Digit Span Task,2021.2.3,Win32,74.13447995,,,,,,,,,,,,,,,,,,,,,
,,,,,,1,0,1,0,1,,001,2022-04-26_15h44.05.923,Digit Span Task,2021.2.3,Win32,74.13447995,,,,,,,,,,,,,,,,,,,,,
,,,,,,2,0,2,0,1,,001,2022-04-26_15h44.05.923,Digit Span Task,2021.2.3,Win32,74.13447995,,,,,,,,,,,,,,,,,,,,,
,,,,,,3,0,3,0,1,,001,2022-04-26_15h44.05.923,Digit Span Task,2021.2.3,Win32,74.13447995,,,,,,,,,,,,,,,,,,,,,
,,,,,,4,0,4,0,1,,001,2022-04-26_15h44.05.923,Digit Span Task,2021.2.3,Win32,74.13447995,,,,,,,,,,,,,,,,,,,,,
,,,,,,5,0,5,0,1,,001,2022-04-26_15h44.05.923,Digit Span Task,2021.2.3,Win32,74.13447995,,,,,,,,,,,,,,,,,,,,,
,,,,,,6,0,6,0,1,,001,2022-04-26_15h44.05.923,Digit Span Task,2021.2.3,Win32,74.13447995,,,,,,,,,,,,,,,,,,,,,
,,,,,,7,0,7,0,1,,001,2022-04-26_15h44.05.923,Digit Span Task,2021.2.3,Win32,74.13447995,,,,,,,,,,,,,,,,,,,,,
,,,,,,,,,,,,001,2022-04-26_15h44.05.923,Digit Span Task,2021.2.3,Win32,74.13447995,27139320,1,0.027777778,-0.396296296,1,0,0,cont_button,0,2,2,2,1,8,27139320,,,,,,
,,,,,,,,,,,,001,2022-04-26_15h44.05.923,Digit Span Task,2021.2.3,Win32,74.13447995,,,,,,,,,,,,,,,,0,5,5,5,1,eight.xlsx
,,,,,,0,0,0,0,1,,001,2022-04-26_15h44.05.923,Digit Span Task,2021.2.3,Win32,74.13447995,,,,,,,,,,,,,,,,,,,,,
,,,,,,1,0,1,0,1,,001,2022-04-26_15h44.05.923,Digit Span Task,2021.2.3,Win32,74.13447995,,,,,,,,,,,,,,,,,,,,,
,,,,,,2,0,2,0,1,,001,2022-04-26_15h44.05.923,Digit Span Task,2021.2.3,Win32,74.13447995,,,,,,,,,,,,,,,,,,,,,
,,,,,,3,0,3,0,1,,001,2022-04-26_15h44.05.923,Digit Span Task,2021.2.3,Win32,74.13447995,,,,,,,,,,,,,,,,,,,,,
,,,,,,4,0,4,0,1,,001,2022-04-26_15h44.05.923,Digit Span Task,2021.2.3,Win32,74.13447995,,,,,,,,,,,,,,,,,,,,,
,,,,,,5,0,5,0,1,,001,2022-04-26_15h44.05.923,Digit Span Task,2021.2.3,Win32,74.13447995,,,,,,,,,,,,,,,,,,,,,
,,,,,,6,0,6,0,1,,001,2022-04-26_15h44.05.923,Digit Span Task,2021.2.3,Win32,74.13447995,,,,,,,,,,,,,,,,,,,,,
,,,,,,7,0,7,0,1,,001,2022-04-26_15h44.05.923,Digit Span Task,2021.2.3,Win32,74.13447995,,,,,,,,,,,,,,,,,,,,,
,,,,,,8,0,8,0,1,,001,2022-04-26_15h44.05.923,Digit Span Task,2021.2.3,Win32,74.13447995,,,,,,,,,,,,,,,,,,,,,
,,,,,,,,,,,,001,2022-04-26_15h44.05.923,Digit Span Task,2021.2.3,Win32,74.13447995,,0,-0.072222222,-0.415740741,1,0,0,cont_button,0,0,0,0,1,9,368373442,,,,,,
,,,,,,0,0,0,0,1,,001,2022-04-26_15h44.05.923,Digit Span Task,2021.2.3,Win32,74.13447995,,,,,,,,,,,,,,,,,,,,,
,,,,,,1,0,1,0,1,,001,2022-04-26_15h44.05.923,Digit Span Task,2021.2.3,Win32,74.13447995,,,,,,,,,,,,,,,,,,,,,
,,,,,,2,0,2,0,1,,001,2022-04-26_15h44.05.923,Digit Span Task,2021.2.3,Win32,74.13447995,,,,,,,,,,,,,,,,,,,,,
,,,,,,3,0,3,0,1,,001,2022-04-26_15h44.05.923,Digit Span Task,2021.2.3,Win32,74.13447995,,,,,,,,,,,,,,,,,,,,,
,,,,,,4,0,4,0,1,,001,2022-04-26_15h44.05.923,Digit Span Task,2021.2.3,Win32,74.13447995,,,,,,,,,,,,,,,,,,,,,
,,,,,,5,0,5,0,1,,001,2022-04-26_15h44.05.923,Digit Span Task,2021.2.3,Win32,74.13447995,,,,,,,,,,,,,,,,,,,,,
,,,,,,6,0,6,0,1,,001,2022-04-26_15h44.05.923,Digit Span Task,2021.2.3,Win32,74.13447995,,,,,,,,,,,,,,,,,,,,,
,,,,,,7,0,7,0,1,,001,2022-04-26_15h44.05.923,Digit Span Task,2021.2.3,Win32,74.13447995,,,,,,,,,,,,,,,,,,,,,
,,,,,,8,0,8,0,1,,001,2022-04-26_15h44.05.923,Digit Span Task,2021.2.3,Win32,74.13447995,,,,,,,,,,,,,,,,,,,,,
,,,,,,,,,,,,001,2022-04-26_15h44.05.923,Digit Span Task,2021.2.3,Win32,74.13447995,576270919,1,0.025,-0.382407407,1,0,0,cont_button,0,1,1,1,1,9,576270919,,,,,,
,,,,,,0,0,0,0,1,,001,2022-04-26_15h44.05.923,Digit Span Task,2021.2.3,Win32,74.13447995,,,,,,,,,,,,,,,,,,,,,
,,,,,,1,0,1,0,1,,001,2022-04-26_15h44.05.923,Digit Span Task,2021.2.3,Win32,74.13447995,,,,,,,,,,,,,,,,,,,,,
,,,,,,2,0,2,0,1,,001,2022-04-26_15h44.05.923,Digit Span Task,2021.2.3,Win32,74.13447995,,,,,,,,,,,,,,,,,,,,,
,,,,,,3,0,3,0,1,,001,2022-04-26_15h44.05.923,Digit Span Task,2021.2.3,Win32,74.13447995,,,,,,,,,,,,,,,,,,,,,
,,,,,,4,0,4,0,1,,001,2022-04-26_15h44.05.923,Digit Span Task,2021.2.3,Win32,74.13447995,,,,,,,,,,,,,,,,,,,,,
