start_mouse.x,start_mouse.y,start_mouse.leftButton,start_mouse.midButton,start_mouse.rightButton,start_mouse.clicked_name,digitLoop.thisRepN,digitLoop.thisTrialN,digitLoop.thisN,digitLoop.thisIndex,digitLoop.ran,participant,session,date,expName,psychopyVersion,OS,frameRate,textbox.text,correct,mouse.x,mouse.y,mouse.leftButton,mouse.midButton,mouse.rightButton,mouse.clicked_name,trials.thisRepN,trials.thisTrialN,trials.thisN,trials.thisIndex,trials.ran,digitSpan,digits,blocks.thisRepN,blocks.thisTrialN,blocks.thisN,blocks.thisIndex,blocks.ran,condition_file
-0.030555486,-0.388888902,1,0,0,cont_button,0,0,0,0,1,q,001,2022-02-26_24h02.09.597,Digit Span Task,2021.2.3,Win32,62.27037798,,,,,,,,,,,,,,,,,,,,,
,,,,,,1,0,1,0,1,q,001,2022-02-26_24h02.09.597,Digit Span Task,2021.2.3,Win32,62.27037798,,,,,,,,,,,,,,,,,,,,,
,,,,,,2,0,2,0,1,q,001,2022-02-26_24h02.09.597,Digit Span Task,2021.2.3,Win32,62.27037798,,,,,,,,,,,,,,,,,,,,,
,,,,,,,,,,,q,001,2022-02-26_24h02.09.597,Digit Span Task,2021.2.3,Win32,62.27037798,217,1,0.002777791,-0.405555569,1,0,0,cont_button,0,0,0,0,1,3,217,,,,,,
,,,,,,0,0,0,0,1,q,001,2022-02-26_24h02.09.597,Digit Span Task,2021.2.3,Win32,62.27037798,,,,,,,,,,,,,,,,,,,,,
,,,,,,1,0,1,0,1,q,001,2022-02-26_24h02.09.597,Digit Span Task,2021.2.3,Win32,62.27037798,,,,,,,,,,,,,,,,,,,,,
,,,,,,2,0,2,0,1,q,001,2022-02-26_24h02.09.597,Digit Span Task,2021.2.3,Win32,62.27037798,,,,,,,,,,,,,,,,,,,,,
,,,,,,,,,,,q,001,2022-02-26_24h02.09.597,Digit Span Task,2021.2.3,Win32,62.27037798,486,1,-0.009259246,-0.4046297,1,0,0,cont_button,0,1,1,1,1,3,486,,,,,,
,,,,,,0,0,0,0,1,q,001,2022-02-26_24h02.09.597,Digit Span Task,2021.2.3,Win32,62.27037798,,,,,,,,,,,,,,,,,,,,,
,,,,,,1,0,1,0,1,q,001,2022-02-26_24h02.09.597,Digit Span Task,2021.2.3,Win32,62.27037798,,,,,,,,,,,,,,,,,,,,,
,,,,,,2,0,2,0,1,q,001,2022-02-26_24h02.09.597,Digit Span Task,2021.2.3,Win32,62.27037798,,,,,,,,,,,,,,,,,,,,,
,,,,,,,,,,,q,001,2022-02-26_24h02.09.597,Digit Span Task,2021.2.3,Win32,62.27037798,760,1,0.02129631,-0.38703705,1,0,0,cont_button,0,2,2,2,1,3,760,,,,,,
,,,,,,,,,,,q,001,2022-02-26_24h02.09.597,Digit Span Task,2021.2.3,Win32,62.27037798,,,,,,,,,,,,,,,,0,0,0,0,1,three.xlsx
,,,,,,0,0,0,0,1,q,001,2022-02-26_24h02.09.597,Digit Span Task,2021.2.3,Win32,62.27037798,,,,,,,,,,,,,,,,,,,,,
,,,,,,1,0,1,0,1,q,001,2022-02-26_24h02.09.597,Digit Span Task,2021.2.3,Win32,62.27037798,,,,,,,,,,,,,,,,,,,,,
,,,,,,2,0,2,0,1,q,001,2022-02-26_24h02.09.597,Digit Span Task,2021.2.3,Win32,62.27037798,,,,,,,,,,,,,,,,,,,,,
,,,,,,3,0,3,0,1,q,001,2022-02-26_24h02.09.597,Digit Span Task,2021.2.3,Win32,62.27037798,,,,,,,,,,,,,,,,,,,,,
,,,,,,,,,,,q,001,2022-02-26_24h02.09.597,Digit Span Task,2021.2.3,Win32,62.27037798,3141,1,-0.005555542,-0.401851865,1,0,0,cont_button,0,0,0,0,1,4,3141,,,,,,
,,,,,,0,0,0,0,1,q,001,2022-02-26_24h02.09.597,Digit Span Task,2021.2.3,Win32,62.27037798,,,,,,,,,,,,,,,,,,,,,
,,,,,,1,0,1,0,1,q,001,2022-02-26_24h02.09.597,Digit Span Task,2021.2.3,Win32,62.27037798,,,,,,,,,,,,,,,,,,,,,
,,,,,,2,0,2,0,1,q,001,2022-02-26_24h02.09.597,Digit Span Task,2021.2.3,Win32,62.27037798,,,,,,,,,,,,,,,,,,,,,
,,,,,,3,0,3,0,1,q,001,2022-02-26_24h02.09.597,Digit Span Task,2021.2.3,Win32,62.27037798,,,,,,,,,,,,,,,,,,,,,
,,,,,,,,,,,q,001,2022-02-26_24h02.09.597,Digit Span Task,2021.2.3,Win32,62.27037798,6351,1,0.004629643,-0.413888959,1,0,0,cont_button,0,1,1,1,1,4,6351,,,,,,
,,,,,,0,0,0,0,1,q,001,2022-02-26_24h02.09.597,Digit Span Task,2021.2.3,Win32,62.27037798,,,,,,,,,,,,,,,,,,,,,
,,,,,,1,0,1,0,1,q,001,2022-02-26_24h02.09.597,Digit Span Task,2021.2.3,Win32,62.27037798,,,,,,,,,,,,,,,,,,,,,
,,,,,,2,0,2,0,1,q,001,2022-02-26_24h02.09.597,Digit Span Task,2021.2.3,Win32,62.27037798,,,,,,,,,,,,,,,,,,,,,
,,,,,,3,0,3,0,1,q,001,2022-02-26_24h02.09.597,Digit Span Task,2021.2.3,Win32,62.27037798,,,,,,,,,,,,,,,,,,,,,
,,,,,,,,,,,q,001,2022-02-26_24h02.09.597,Digit Span Task,2021.2.3,Win32,62.27037798,2391,1,0.003703717,-0.403703717,1,0,0,cont_button,0,2,2,2,1,4,2391,,,,,,
,,,,,,,,,,,q,001,2022-02-26_24h02.09.597,Digit Span Task,2021.2.3,Win32,62.27037798,,,,,,,,,,,,,,,,0,1,1,1,1,four.xlsx
,,,,,,0,0,0,0,1,q,001,2022-02-26_24h02.09.597,Digit Span Task,2021.2.3,Win32,62.27037798,,,,,,,,,,,,,,,,,,,,,
,,,,,,1,0,1,0,1,q,001,2022-02-26_24h02.09.597,Digit Span Task,2021.2.3,Win32,62.27037798,,,,,,,,,,,,,,,,,,,,,
,,,,,,2,0,2,0,1,q,001,2022-02-26_24h02.09.597,Digit Span Task,2021.2.3,Win32,62.27037798,,,,,,,,,,,,,,,,,,,,,
,,,,,,3,0,3,0,1,q,001,2022-02-26_24h02.09.597,Digit Span Task,2021.2.3,Win32,62.27037798,,,,,,,,,,,,,,,,,,,,,
,,,,,,4,0,4,0,1,q,001,2022-02-26_24h02.09.597,Digit Span Task,2021.2.3,Win32,62.27037798,,,,,,,,,,,,,,,,,,,,,
,,,,,,,,,,,q,001,2022-02-26_24h02.09.597,Digit Span Task,2021.2.3,Win32,62.27037798,14932,1,-0.037037024,-0.4046297,1,0,0,cont_button,0,0,0,0,1,5,14932,,,,,,
,,,,,,0,0,0,0,1,q,001,2022-02-26_24h02.09.597,Digit Span Task,2021.2.3,Win32,62.27037798,,,,,,,,,,,,,,,,,,,,,
,,,,,,1,0,1,0,1,q,001,2022-02-26_24h02.09.597,Digit Span Task,2021.2.3,Win32,62.27037798,,,,,,,,,,,,,,,,,,,,,
,,,,,,2,0,2,0,1,q,001,2022-02-26_24h02.09.597,Digit Span Task,2021.2.3,Win32,62.27037798,,,,,,,,,,,,,,,,,,,,,
,,,,,,3,0,3,0,1,q,001,2022-02-26_24h02.09.597,Digit Span Task,2021.2.3,Win32,62.27037798,,,,,,,,,,,,,,,,,,,,,
,,,,,,4,0,4,0,1,q,001,2022-02-26_24h02.09.597,Digit Span Task,2021.2.3,Win32,62.27037798,,,,,,,,,,,,,,,,,,,,,
,,,,,,,,,,,q,001,2022-02-26_24h02.09.597,Digit Span Task,2021.2.3,Win32,62.27037798,10646,1,-0.036111098,-0.403703717,1,0,0,cont_button,0,1,1,1,1,5,10646,,,,,,
,,,,,,0,0,0,0,1,q,001,2022-02-26_24h02.09.597,Digit Span Task,2021.2.3,Win32,62.27037798,,,,,,,,,,,,,,,,,,,,,
,,,,,,1,0,1,0,1,q,001,2022-02-26_24h02.09.597,Digit Span Task,2021.2.3,Win32,62.27037798,,,,,,,,,,,,,,,,,,,,,
,,,,,,2,0,2,0,1,q,001,2022-02-26_24h02.09.597,Digit Span Task,2021.2.3,Win32,62.27037798,,,,,,,,,,,,,,,,,,,,,
,,,,,,3,0,3,0,1,q,001,2022-02-26_24h02.09.597,Digit Span Task,2021.2.3,Win32,62.27037798,,,,,,,,,,,,,,,,,,,,,
,,,,,,4,0,4,0,1,q,001,2022-02-26_24h02.09.597,Digit Span Task,2021.2.3,Win32,62.27037798,,,,,,,,,,,,,,,,,,,,,
,,,,,,,,,,,q,001,2022-02-26_24h02.09.597,Digit Span Task,2021.2.3,Win32,62.27037798,74832,1,-0.036111098,-0.403703717,1,0,0,cont_button,0,2,2,2,1,5,74832,,,,,,
,,,,,,,,,,,q,001,2022-02-26_24h02.09.597,Digit Span Task,2021.2.3,Win32,62.27037798,,,,,,,,,,,,,,,,0,2,2,2,1,five.xlsx
,,,,,,0,0,0,0,1,q,001,2022-02-26_24h02.09.597,Digit Span Task,2021.2.3,Win32,62.27037798,,,,,,,,,,,,,,,,,,,,,
,,,,,,1,0,1,0,1,q,001,2022-02-26_24h02.09.597,Digit Span Task,2021.2.3,Win32,62.27037798,,,,,,,,,,,,,,,,,,,,,
,,,,,,2,0,2,0,1,q,001,2022-02-26_24h02.09.597,Digit Span Task,2021.2.3,Win32,62.27037798,,,,,,,,,,,,,,,,,,,,,
,,,,,,3,0,3,0,1,q,001,2022-02-26_24h02.09.597,Digit Span Task,2021.2.3,Win32,62.27037798,,,,,,,,,,,,,,,,,,,,,
,,,,,,4,0,4,0,1,q,001,2022-02-26_24h02.09.597,Digit Span Task,2021.2.3,Win32,62.27037798,,,,,,,,,,,,,,,,,,,,,
,,,,,,5,0,5,0,1,q,001,2022-02-26_24h02.09.597,Digit Span Task,2021.2.3,Win32,62.27037798,,,,,,,,,,,,,,,,,,,,,
,,,,,,,,,,,q,001,2022-02-26_24h02.09.597,Digit Span Task,2021.2.3,Win32,62.27037798,934683,0,-0.036111098,-0.403703717,1,0,0,cont_button,0,0,0,0,1,6,934648,,,,,,
,,,,,,0,0,0,0,1,q,001,2022-02-26_24h02.09.597,Digit Span Task,2021.2.3,Win32,62.27037798,,,,,,,,,,,,,,,,,,,,,
,,,,,,1,0,1,0,1,q,001,2022-02-26_24h02.09.597,Digit Span Task,2021.2.3,Win32,62.27037798,,,,,,,,,,,,,,,,,,,,,
