start_mouse.x,start_mouse.y,start_mouse.leftButton,start_mouse.midButton,start_mouse.rightButton,start_mouse.clicked_name,digitLoop.thisRepN,digitLoop.thisTrialN,digitLoop.thisN,digitLoop.thisIndex,digitLoop.ran,participant,session,date,expName,psychopyVersion,OS,frameRate,textbox.text,correct,mouse.x,mouse.y,mouse.leftButton,mouse.midButton,mouse.rightButton,mouse.clicked_name,trials.thisRepN,trials.thisTrialN,trials.thisN,trials.thisIndex,trials.ran,digitSpan,digits,blocks.thisRepN,blocks.thisTrialN,blocks.thisN,blocks.thisIndex,blocks.ran,condition_file
0.05092594,-0.411111125,1,0,0,cont_button,0,0,0,0,1,test,001,2022-03-03_13h13.23.958,Digit Span Task,2021.2.3,Win32,59.96282305,,,,,,,,,,,,,,,,,,,,,
,,,,,,1,0,1,0,1,test,001,2022-03-03_13h13.23.958,Digit Span Task,2021.2.3,Win32,59.96282305,,,,,,,,,,,,,,,,,,,,,
,,,,,,2,0,2,0,1,test,001,2022-03-03_13h13.23.958,Digit Span Task,2021.2.3,Win32,59.96282305,,,,,,,,,,,,,,,,,,,,,
,,,,,,,,,,,test,001,2022-03-03_13h13.23.958,Digit Span Task,2021.2.3,Win32,59.96282305,217,1,0.099074089,-0.382407421,1,0,0,cont_button,0,0,0,0,1,3,217,,,,,,
,,,,,,0,0,0,0,1,test,001,2022-03-03_13h13.23.958,Digit Span Task,2021.2.3,Win32,59.96282305,,,,,,,,,,,,,,,,,,,,,
,,,,,,1,0,1,0,1,test,001,2022-03-03_13h13.23.958,Digit Span Task,2021.2.3,Win32,59.96282305,,,,,,,,,,,,,,,,,,,,,
,,,,,,2,0,2,0,1,test,001,2022-03-03_13h13.23.958,Digit Span Task,2021.2.3,Win32,59.96282305,,,,,,,,,,,,,,,,,,,,,
,,,,,,,,,,,test,001,2022-03-03_13h13.23.958,Digit Span Task,2021.2.3,Win32,59.96282305,486,1,-0.012036967,-0.38703705,1,0,0,cont_button,0,1,1,1,1,3,486,,,,,,
,,,,,,0,0,0,0,1,test,001,2022-03-03_13h13.23.958,Digit Span Task,2021.2.3,Win32,59.96282305,,,,,,,,,,,,,,,,,,,,,
,,,,,,1,0,1,0,1,test,001,2022-03-03_13h13.23.958,Digit Span Task,2021.2.3,Win32,59.96282305,,,,,,,,,,,,,,,,,,,,,
,,,,,,2,0,2,0,1,test,001,2022-03-03_13h13.23.958,Digit Span Task,2021.2.3,Win32,59.96282305,,,,,,,,,,,,,,,,,,,,,
,,,,,,,,,,,test,001,2022-03-03_13h13.23.958,Digit Span Task,2021.2.3,Win32,59.96282305,760,1,0.073148162,-0.397222236,1,0,0,cont_button,0,2,2,2,1,3,760,,,,,,
,,,,,,,,,,,test,001,2022-03-03_13h13.23.958,Digit Span Task,2021.2.3,Win32,59.96282305,,,,,,,,,,,,,,,,0,0,0,0,1,three.xlsx
,,,,,,0,0,0,0,1,test,001,2022-03-03_13h13.23.958,Digit Span Task,2021.2.3,Win32,59.96282305,,,,,,,,,,,,,,,,,,,,,
,,,,,,1,0,1,0,1,test,001,2022-03-03_13h13.23.958,Digit Span Task,2021.2.3,Win32,59.96282305,,,,,,,,,,,,,,,,,,,,,
,,,,,,2,0,2,0,1,test,001,2022-03-03_13h13.23.958,Digit Span Task,2021.2.3,Win32,59.96282305,,,,,,,,,,,,,,,,,,,,,
,,,,,,3,0,3,0,1,test,001,2022-03-03_13h13.23.958,Digit Span Task,2021.2.3,Win32,59.96282305,,,,,,,,,,,,,,,,,,,,,
,,,,,,,,,,,test,001,2022-03-03_13h13.23.958,Digit Span Task,2021.2.3,Win32,59.96282305,3141,1,0.073148162,-0.397222236,1,0,0,cont_button,0,0,0,0,1,4,3141,,,,,,
,,,,,,0,0,0,0,1,test,001,2022-03-03_13h13.23.958,Digit Span Task,2021.2.3,Win32,59.96282305,,,,,,,,,,,,,,,,,,,,,
,,,,,,1,0,1,0,1,test,001,2022-03-03_13h13.23.958,Digit Span Task,2021.2.3,Win32,59.96282305,,,,,,,,,,,,,,,,,,,,,
,,,,,,2,0,2,0,1,test,001,2022-03-03_13h13.23.958,Digit Span Task,2021.2.3,Win32,59.96282305,,,,,,,,,,,,,,,,,,,,,
,,,,,,3,0,3,0,1,test,001,2022-03-03_13h13.23.958,Digit Span Task,2021.2.3,Win32,59.96282305,,,,,,,,,,,,,,,,,,,,,
,,,,,,,,,,,test,001,2022-03-03_13h13.23.958,Digit Span Task,2021.2.3,Win32,59.96282305,6351,1,0.071296311,-0.381481551,1,0,0,cont_button,0,1,1,1,1,4,6351,,,,,,
,,,,,,0,0,0,0,1,test,001,2022-03-03_13h13.23.958,Digit Span Task,2021.2.3,Win32,59.96282305,,,,,,,,,,,,,,,,,,,,,
,,,,,,1,0,1,0,1,test,001,2022-03-03_13h13.23.958,Digit Span Task,2021.2.3,Win32,59.96282305,,,,,,,,,,,,,,,,,,,,,
,,,,,,2,0,2,0,1,test,001,2022-03-03_13h13.23.958,Digit Span Task,2021.2.3,Win32,59.96282305,,,,,,,,,,,,,,,,,,,,,
,,,,,,3,0,3,0,1,test,001,2022-03-03_13h13.23.958,Digit Span Task,2021.2.3,Win32,59.96282305,,,,,,,,,,,,,,,,,,,,,
,,,,,,,,,,,test,001,2022-03-03_13h13.23.958,Digit Span Task,2021.2.3,Win32,59.96282305,2391,1,1.32455E-08,-0.42129631,1,0,0,cont_button,0,2,2,2,1,4,2391,,,,,,
,,,,,,,,,,,test,001,2022-03-03_13h13.23.958,Digit Span Task,2021.2.3,Win32,59.96282305,,,,,,,,,,,,,,,,0,1,1,1,1,four.xlsx
,,,,,,0,0,0,0,1,test,001,2022-03-03_13h13.23.958,Digit Span Task,2021.2.3,Win32,59.96282305,,,,,,,,,,,,,,,,,,,,,
,,,,,,1,0,1,0,1,test,001,2022-03-03_13h13.23.958,Digit Span Task,2021.2.3,Win32,59.96282305,,,,,,,,,,,,,,,,,,,,,
,,,,,,2,0,2,0,1,test,001,2022-03-03_13h13.23.958,Digit Span Task,2021.2.3,Win32,59.96282305,,,,,,,,,,,,,,,,,,,,,
,,,,,,3,0,3,0,1,test,001,2022-03-03_13h13.23.958,Digit Span Task,2021.2.3,Win32,59.96282305,,,,,,,,,,,,,,,,,,,,,
,,,,,,4,0,4,0,1,test,001,2022-03-03_13h13.23.958,Digit Span Task,2021.2.3,Win32,59.96282305,,,,,,,,,,,,,,,,,,,,,
,,,,,,,,,,,test,001,2022-03-03_13h13.23.958,Digit Span Task,2021.2.3,Win32,59.96282305,14932,1,0.062962977,-0.380555569,1,0,0,cont_button,0,0,0,0,1,5,14932,,,,,,
,,,,,,0,0,0,0,1,test,001,2022-03-03_13h13.23.958,Digit Span Task,2021.2.3,Win32,59.96282305,,,,,,,,,,,,,,,,,,,,,
,,,,,,1,0,1,0,1,test,001,2022-03-03_13h13.23.958,Digit Span Task,2021.2.3,Win32,59.96282305,,,,,,,,,,,,,,,,,,,,,
,,,,,,2,0,2,0,1,test,001,2022-03-03_13h13.23.958,Digit Span Task,2021.2.3,Win32,59.96282305,,,,,,,,,,,,,,,,,,,,,
,,,,,,3,0,3,0,1,test,001,2022-03-03_13h13.23.958,Digit Span Task,2021.2.3,Win32,59.96282305,,,,,,,,,,,,,,,,,,,,,
,,,,,,4,0,4,0,1,test,001,2022-03-03_13h13.23.958,Digit Span Task,2021.2.3,Win32,59.96282305,,,,,,,,,,,,,,,,,,,,,
,,,,,,,,,,,test,001,2022-03-03_13h13.23.958,Digit Span Task,2021.2.3,Win32,59.96282305,10646,1,-0.003703691,-0.389814828,1,0,0,cont_button,0,1,1,1,1,5,10646,,,,,,
,,,,,,0,0,0,0,1,test,001,2022-03-03_13h13.23.958,Digit Span Task,2021.2.3,Win32,59.96282305,,,,,,,,,,,,,,,,,,,,,
,,,,,,1,0,1,0,1,test,001,2022-03-03_13h13.23.958,Digit Span Task,2021.2.3,Win32,59.96282305,,,,,,,,,,,,,,,,,,,,,
,,,,,,2,0,2,0,1,test,001,2022-03-03_13h13.23.958,Digit Span Task,2021.2.3,Win32,59.96282305,,,,,,,,,,,,,,,,,,,,,
,,,,,,3,0,3,0,1,test,001,2022-03-03_13h13.23.958,Digit Span Task,2021.2.3,Win32,59.96282305,,,,,,,,,,,,,,,,,,,,,
,,,,,,4,0,4,0,1,test,001,2022-03-03_13h13.23.958,Digit Span Task,2021.2.3,Win32,59.96282305,,,,,,,,,,,,,,,,,,,,,
,,,,,,,,,,,test,001,2022-03-03_13h13.23.958,Digit Span Task,2021.2.3,Win32,59.96282305,"74832
",0,0.030555569,-0.406481495,1,0,0,cont_button,0,2,2,2,1,5,74832,,,,,,
,,,,,,,,,,,test,001,2022-03-03_13h13.23.958,Digit Span Task,2021.2.3,Win32,59.96282305,,,,,,,,,,,,,,,,0,2,2,2,1,five.xlsx
,,,,,,0,0,0,0,1,test,001,2022-03-03_13h13.23.958,Digit Span Task,2021.2.3,Win32,59.96282305,,,,,,,,,,,,,,,,,,,,,
,,,,,,1,0,1,0,1,test,001,2022-03-03_13h13.23.958,Digit Span Task,2021.2.3,Win32,59.96282305,,,,,,,,,,,,,,,,,,,,,
,,,,,,2,0,2,0,1,test,001,2022-03-03_13h13.23.958,Digit Span Task,2021.2.3,Win32,59.96282305,,,,,,,,,,,,,,,,,,,,,
,,,,,,3,0,3,0,1,test,001,2022-03-03_13h13.23.958,Digit Span Task,2021.2.3,Win32,59.96282305,,,,,,,,,,,,,,,,,,,,,
,,,,,,4,0,4,0,1,test,001,2022-03-03_13h13.23.958,Digit Span Task,2021.2.3,Win32,59.96282305,,,,,,,,,,,,,,,,,,,,,
,,,,,,5,0,5,0,1,test,001,2022-03-03_13h13.23.958,Digit Span Task,2021.2.3,Win32,59.96282305,,,,,,,,,,,,,,,,,,,,,
,,,,,,,,,,,test,001,2022-03-03_13h13.23.958,Digit Span Task,2021.2.3,Win32,59.96282305,934648,1,0.030555569,-0.406481495,1,0,0,cont_button,0,0,0,0,1,6,934648,,,,,,
,,,,,,0,0,0,0,1,test,001,2022-03-03_13h13.23.958,Digit Span Task,2021.2.3,Win32,59.96282305,,,,,,,,,,,,,,,,,,,,,
,,,,,,1,0,1,0,1,test,001,2022-03-03_13h13.23.958,Digit Span Task,2021.2.3,Win32,59.96282305,,,,,,,,,,,,,,,,,,,,,
,,,,,,2,0,2,0,1,test,001,2022-03-03_13h13.23.958,Digit Span Task,2021.2.3,Win32,59.96282305,,,,,,,,,,,,,,,,,,,,,
,,,,,,3,0,3,0,1,test,001,2022-03-03_13h13.23.958,Digit Span Task,2021.2.3,Win32,59.96282305,,,,,,,,,,,,,,,,,,,,,
,,,,,,4,0,4,0,1,test,001,2022-03-03_13h13.23.958,Digit Span Task,2021.2.3,Win32,59.96282305,,,,,,,,,,,,,,,,,,,,,
