start_mouse.x,start_mouse.y,start_mouse.leftButton,start_mouse.midButton,start_mouse.rightButton,start_mouse.clicked_name,digitLoop.thisRepN,digitLoop.thisTrialN,digitLoop.thisN,digitLoop.thisIndex,digitLoop.ran,participant,session,date,expName,psychopyVersion,OS,frameRate,textbox.text,correct,mouse.x,mouse.y,mouse.leftButton,mouse.midButton,mouse.rightButton,mouse.clicked_name,trials.thisRepN,trials.thisTrialN,trials.thisN,trials.thisIndex,trials.ran,digitSpan,digits,blocks.thisRepN,blocks.thisTrialN,blocks.thisN,blocks.thisIndex,blocks.ran,condition_file
-0.016927083,-0.389322917,1,0,0,cont_button,0,0,0,0,1,zoe,001,2022-04-08_12h59.52.097,Digit Span Task,2021.2.3,Win32,40,,,,,,,,,,,,,,,,,,,,,
,,,,,,1,0,1,0,1,zoe,001,2022-04-08_12h59.52.097,Digit Span Task,2021.2.3,Win32,40,,,,,,,,,,,,,,,,,,,,,
,,,,,,2,0,2,0,1,zoe,001,2022-04-08_12h59.52.097,Digit Span Task,2021.2.3,Win32,40,,,,,,,,,,,,,,,,,,,,,
,,,,,,,,,,,zoe,001,2022-04-08_12h59.52.097,Digit Span Task,2021.2.3,Win32,40,217,1,-0.0390625,-0.411458333,1,0,0,cont_button,0,0,0,0,1,3,217,,,,,,
,,,,,,0,0,0,0,1,zoe,001,2022-04-08_12h59.52.097,Digit Span Task,2021.2.3,Win32,40,,,,,,,,,,,,,,,,,,,,,
,,,,,,1,0,1,0,1,zoe,001,2022-04-08_12h59.52.097,Digit Span Task,2021.2.3,Win32,40,,,,,,,,,,,,,,,,,,,,,
,,,,,,2,0,2,0,1,zoe,001,2022-04-08_12h59.52.097,Digit Span Task,2021.2.3,Win32,40,,,,,,,,,,,,,,,,,,,,,
,,,,,,,,,,,zoe,001,2022-04-08_12h59.52.097,Digit Span Task,2021.2.3,Win32,40,486,1,-0.0390625,-0.411458333,1,0,0,cont_button,0,1,1,1,1,3,486,,,,,,
,,,,,,0,0,0,0,1,zoe,001,2022-04-08_12h59.52.097,Digit Span Task,2021.2.3,Win32,40,,,,,,,,,,,,,,,,,,,,,
,,,,,,1,0,1,0,1,zoe,001,2022-04-08_12h59.52.097,Digit Span Task,2021.2.3,Win32,40,,,,,,,,,,,,,,,,,,,,,
,,,,,,2,0,2,0,1,zoe,001,2022-04-08_12h59.52.097,Digit Span Task,2021.2.3,Win32,40,,,,,,,,,,,,,,,,,,,,,
,,,,,,,,,,,zoe,001,2022-04-08_12h59.52.097,Digit Span Task,2021.2.3,Win32,40,760,1,-0.0390625,-0.411458333,1,0,0,cont_button,0,2,2,2,1,3,760,,,,,,
,,,,,,,,,,,zoe,001,2022-04-08_12h59.52.097,Digit Span Task,2021.2.3,Win32,40,,,,,,,,,,,,,,,,0,0,0,0,1,three.xlsx
,,,,,,0,0,0,0,1,zoe,001,2022-04-08_12h59.52.097,Digit Span Task,2021.2.3,Win32,40,,,,,,,,,,,,,,,,,,,,,
,,,,,,1,0,1,0,1,zoe,001,2022-04-08_12h59.52.097,Digit Span Task,2021.2.3,Win32,40,,,,,,,,,,,,,,,,,,,,,
,,,,,,2,0,2,0,1,zoe,001,2022-04-08_12h59.52.097,Digit Span Task,2021.2.3,Win32,40,,,,,,,,,,,,,,,,,,,,,
,,,,,,3,0,3,0,1,zoe,001,2022-04-08_12h59.52.097,Digit Span Task,2021.2.3,Win32,40,,,,,,,,,,,,,,,,,,,,,
,,,,,,,,,,,zoe,001,2022-04-08_12h59.52.097,Digit Span Task,2021.2.3,Win32,40,3141,1,-0.0390625,-0.411458333,1,0,0,cont_button,0,0,0,0,1,4,3141,,,,,,
,,,,,,0,0,0,0,1,zoe,001,2022-04-08_12h59.52.097,Digit Span Task,2021.2.3,Win32,40,,,,,,,,,,,,,,,,,,,,,
,,,,,,1,0,1,0,1,zoe,001,2022-04-08_12h59.52.097,Digit Span Task,2021.2.3,Win32,40,,,,,,,,,,,,,,,,,,,,,
,,,,,,2,0,2,0,1,zoe,001,2022-04-08_12h59.52.097,Digit Span Task,2021.2.3,Win32,40,,,,,,,,,,,,,,,,,,,,,
,,,,,,3,0,3,0,1,zoe,001,2022-04-08_12h59.52.097,Digit Span Task,2021.2.3,Win32,40,,,,,,,,,,,,,,,,,,,,,
,,,,,,,,,,,zoe,001,2022-04-08_12h59.52.097,Digit Span Task,2021.2.3,Win32,40,6351,1,-0.0390625,-0.411458333,1,0,0,cont_button,0,1,1,1,1,4,6351,,,,,,
,,,,,,0,0,0,0,1,zoe,001,2022-04-08_12h59.52.097,Digit Span Task,2021.2.3,Win32,40,,,,,,,,,,,,,,,,,,,,,
,,,,,,1,0,1,0,1,zoe,001,2022-04-08_12h59.52.097,Digit Span Task,2021.2.3,Win32,40,,,,,,,,,,,,,,,,,,,,,
,,,,,,2,0,2,0,1,zoe,001,2022-04-08_12h59.52.097,Digit Span Task,2021.2.3,Win32,40,,,,,,,,,,,,,,,,,,,,,
,,,,,,3,0,3,0,1,zoe,001,2022-04-08_12h59.52.097,Digit Span Task,2021.2.3,Win32,40,,,,,,,,,,,,,,,,,,,,,
,,,,,,,,,,,zoe,001,2022-04-08_12h59.52.097,Digit Span Task,2021.2.3,Win32,40,2391,1,-0.0390625,-0.411458333,1,0,0,cont_button,0,2,2,2,1,4,2391,,,,,,
,,,,,,,,,,,zoe,001,2022-04-08_12h59.52.097,Digit Span Task,2021.2.3,Win32,40,,,,,,,,,,,,,,,,0,1,1,1,1,four.xlsx
,,,,,,0,0,0,0,1,zoe,001,2022-04-08_12h59.52.097,Digit Span Task,2021.2.3,Win32,40,,,,,,,,,,,,,,,,,,,,,
,,,,,,1,0,1,0,1,zoe,001,2022-04-08_12h59.52.097,Digit Span Task,2021.2.3,Win32,40,,,,,,,,,,,,,,,,,,,,,
,,,,,,2,0,2,0,1,zoe,001,2022-04-08_12h59.52.097,Digit Span Task,2021.2.3,Win32,40,,,,,,,,,,,,,,,,,,,,,
,,,,,,3,0,3,0,1,zoe,001,2022-04-08_12h59.52.097,Digit Span Task,2021.2.3,Win32,40,,,,,,,,,,,,,,,,,,,,,
,,,,,,4,0,4,0,1,zoe,001,2022-04-08_12h59.52.097,Digit Span Task,2021.2.3,Win32,40,,,,,,,,,,,,,,,,,,,,,
,,,,,,,,,,,zoe,001,2022-04-08_12h59.52.097,Digit Span Task,2021.2.3,Win32,40,14932,1,-0.0390625,-0.411458333,1,0,0,cont_button,0,0,0,0,1,5,14932,,,,,,
,,,,,,0,0,0,0,1,zoe,001,2022-04-08_12h59.52.097,Digit Span Task,2021.2.3,Win32,40,,,,,,,,,,,,,,,,,,,,,
,,,,,,1,0,1,0,1,zoe,001,2022-04-08_12h59.52.097,Digit Span Task,2021.2.3,Win32,40,,,,,,,,,,,,,,,,,,,,,
,,,,,,2,0,2,0,1,zoe,001,2022-04-08_12h59.52.097,Digit Span Task,2021.2.3,Win32,40,,,,,,,,,,,,,,,,,,,,,
,,,,,,3,0,3,0,1,zoe,001,2022-04-08_12h59.52.097,Digit Span Task,2021.2.3,Win32,40,,,,,,,,,,,,,,,,,,,,,
,,,,,,4,0,4,0,1,zoe,001,2022-04-08_12h59.52.097,Digit Span Task,2021.2.3,Win32,40,,,,,,,,,,,,,,,,,,,,,
,,,,,,,,,,,zoe,001,2022-04-08_12h59.52.097,Digit Span Task,2021.2.3,Win32,40,10646,1,-0.0390625,-0.411458333,1,0,0,cont_button,0,1,1,1,1,5,10646,,,,,,
,,,,,,0,0,0,0,1,zoe,001,2022-04-08_12h59.52.097,Digit Span Task,2021.2.3,Win32,40,,,,,,,,,,,,,,,,,,,,,
,,,,,,1,0,1,0,1,zoe,001,2022-04-08_12h59.52.097,Digit Span Task,2021.2.3,Win32,40,,,,,,,,,,,,,,,,,,,,,
,,,,,,2,0,2,0,1,zoe,001,2022-04-08_12h59.52.097,Digit Span Task,2021.2.3,Win32,40,,,,,,,,,,,,,,,,,,,,,
,,,,,,3,0,3,0,1,zoe,001,2022-04-08_12h59.52.097,Digit Span Task,2021.2.3,Win32,40,,,,,,,,,,,,,,,,,,,,,
,,,,,,4,0,4,0,1,zoe,001,2022-04-08_12h59.52.097,Digit Span Task,2021.2.3,Win32,40,,,,,,,,,,,,,,,,,,,,,
,,,,,,,,,,,zoe,001,2022-04-08_12h59.52.097,Digit Span Task,2021.2.3,Win32,40,74832,1,-0.046875,-0.404947917,1,0,0,cont_button,0,2,2,2,1,5,74832,,,,,,
,,,,,,,,,,,zoe,001,2022-04-08_12h59.52.097,Digit Span Task,2021.2.3,Win32,40,,,,,,,,,,,,,,,,0,2,2,2,1,five.xlsx
,,,,,,0,0,0,0,1,zoe,001,2022-04-08_12h59.52.097,Digit Span Task,2021.2.3,Win32,40,,,,,,,,,,,,,,,,,,,,,
,,,,,,1,0,1,0,1,zoe,001,2022-04-08_12h59.52.097,Digit Span Task,2021.2.3,Win32,40,,,,,,,,,,,,,,,,,,,,,
,,,,,,2,0,2,0,1,zoe,001,2022-04-08_12h59.52.097,Digit Span Task,2021.2.3,Win32,40,,,,,,,,,,,,,,,,,,,,,
,,,,,,3,0,3,0,1,zoe,001,2022-04-08_12h59.52.097,Digit Span Task,2021.2.3,Win32,40,,,,,,,,,,,,,,,,,,,,,
,,,,,,4,0,4,0,1,zoe,001,2022-04-08_12h59.52.097,Digit Span Task,2021.2.3,Win32,40,,,,,,,,,,,,,,,,,,,,,
,,,,,,5,0,5,0,1,zoe,001,2022-04-08_12h59.52.097,Digit Span Task,2021.2.3,Win32,40,,,,,,,,,,,,,,,,,,,,,
,,,,,,,,,,,zoe,001,2022-04-08_12h59.52.097,Digit Span Task,2021.2.3,Win32,40,934648,1,-0.046875,-0.403645833,1,0,0,cont_button,0,0,0,0,1,6,934648,,,,,,
,,,,,,0,0,0,0,1,zoe,001,2022-04-08_12h59.52.097,Digit Span Task,2021.2.3,Win32,40,,,,,,,,,,,,,,,,,,,,,
,,,,,,1,0,1,0,1,zoe,001,2022-04-08_12h59.52.097,Digit Span Task,2021.2.3,Win32,40,,,,,,,,,,,,,,,,,,,,,
,,,,,,2,0,2,0,1,zoe,001,2022-04-08_12h59.52.097,Digit Span Task,2021.2.3,Win32,40,,,,,,,,,,,,,,,,,,,,,
,,,,,,3,0,3,0,1,zoe,001,2022-04-08_12h59.52.097,Digit Span Task,2021.2.3,Win32,40,,,,,,,,,,,,,,,,,,,,,
,,,,,,4,0,4,0,1,zoe,001,2022-04-08_12h59.52.097,Digit Span Task,2021.2.3,Win32,40,,,,,,,,,,,,,,,,,,,,,
,,,,,,5,0,5,0,1,zoe,001,2022-04-08_12h59.52.097,Digit Span Task,2021.2.3,Win32,40,,,,,,,,,,,,,,,,,,,,,
,,,,,,,,,,,zoe,001,2022-04-08_12h59.52.097,Digit Span Task,2021.2.3,Win32,40,179390,1,-0.111979167,-0.39453125,1,0,0,cont_button,0,1,1,1,1,6,179390,,,,,,
,,,,,,0,0,0,0,1,zoe,001,2022-04-08_12h59.52.097,Digit Span Task,2021.2.3,Win32,40,,,,,,,,,,,,,,,,,,,,,
,,,,,,1,0,1,0,1,zoe,001,2022-04-08_12h59.52.097,Digit Span Task,2021.2.3,Win32,40,,,,,,,,,,,,,,,,,,,,,
,,,,,,2,0,2,0,1,zoe,001,2022-04-08_12h59.52.097,Digit Span Task,2021.2.3,Win32,40,,,,,,,,,,,,,,,,,,,,,
,,,,,,3,0,3,0,1,zoe,001,2022-04-08_12h59.52.097,Digit Span Task,2021.2.3,Win32,40,,,,,,,,,,,,,,,,,,,,,
,,,,,,4,0,4,0,1,zoe,001,2022-04-08_12h59.52.097,Digit Span Task,2021.2.3,Win32,40,,,,,,,,,,,,,,,,,,,,,
,,,,,,5,0,5,0,1,zoe,001,2022-04-08_12h59.52.097,Digit Span Task,2021.2.3,Win32,40,,,,,,,,,,,,,,,,,,,,,
,,,,,,,,,,,zoe,001,2022-04-08_12h59.52.097,Digit Span Task,2021.2.3,Win32,40,408288,1,-0.001302083,-0.3828125,1,0,0,cont_button,0,2,2,2,1,6,408288,,,,,,
,,,,,,,,,,,zoe,001,2022-04-08_12h59.52.097,Digit Span Task,2021.2.3,Win32,40,,,,,,,,,,,,,,,,0,3,3,3,1,six.xlsx
,,,,,,0,0,0,0,1,zoe,001,2022-04-08_12h59.52.097,Digit Span Task,2021.2.3,Win32,40,,,,,,,,,,,,,,,,,,,,,
,,,,,,1,0,1,0,1,zoe,001,2022-04-08_12h59.52.097,Digit Span Task,2021.2.3,Win32,40,,,,,,,,,,,,,,,,,,,,,
,,,,,,2,0,2,0,1,zoe,001,2022-04-08_12h59.52.097,Digit Span Task,2021.2.3,Win32,40,,,,,,,,,,,,,,,,,,,,,
,,,,,,3,0,3,0,1,zoe,001,2022-04-08_12h59.52.097,Digit Span Task,2021.2.3,Win32,40,,,,,,,,,,,,,,,,,,,,,
,,,,,,4,0,4,0,1,zoe,001,2022-04-08_12h59.52.097,Digit Span Task,2021.2.3,Win32,40,,,,,,,,,,,,,,,,,,,,,
,,,,,,5,0,5,0,1,zoe,001,2022-04-08_12h59.52.097,Digit Span Task,2021.2.3,Win32,40,,,,,,,,,,,,,,,,,,,,,
,,,,,,6,0,6,0,1,zoe,001,2022-04-08_12h59.52.097,Digit Span Task,2021.2.3,Win32,40,,,,,,,,,,,,,,,,,,,,,
,,,,,,,,,,,zoe,001,2022-04-08_12h59.52.097,Digit Span Task,2021.2.3,Win32,40,4498327,0,-0.005208333,-0.39453125,1,0,0,cont_button,0,0,0,0,1,7,4498237,,,,,,
,,,,,,0,0,0,0,1,zoe,001,2022-04-08_12h59.52.097,Digit Span Task,2021.2.3,Win32,40,,,,,,,,,,,,,,,,,,,,,
,,,,,,1,0,1,0,1,zoe,001,2022-04-08_12h59.52.097,Digit Span Task,2021.2.3,Win32,40,,,,,,,,,,,,,,,,,,,,,
,,,,,,2,0,2,0,1,zoe,001,2022-04-08_12h59.52.097,Digit Span Task,2021.2.3,Win32,40,,,,,,,,,,,,,,,,,,,,,
,,,,,,3,0,3,0,1,zoe,001,2022-04-08_12h59.52.097,Digit Span Task,2021.2.3,Win32,40,,,,,,,,,,,,,,,,,,,,,
,,,,,,4,0,4,0,1,zoe,001,2022-04-08_12h59.52.097,Digit Span Task,2021.2.3,Win32,40,,,,,,,,,,,,,,,,,,,,,
,,,,,,5,0,5,0,1,zoe,001,2022-04-08_12h59.52.097,Digit Span Task,2021.2.3,Win32,40,,,,,,,,,,,,,,,,,,,,,
,,,,,,6,0,6,0,1,zoe,001,2022-04-08_12h59.52.097,Digit Span Task,2021.2.3,Win32,40,,,,,,,,,,,,,,,,,,,,,
,,,,,,,,,,,zoe,001,2022-04-08_12h59.52.097,Digit Span Task,2021.2.3,Win32,40,2544371,1,-0.083333333,-0.408854167,1,0,0,cont_button,0,1,1,1,1,7,2544371,,,,,,
,,,,,,0,0,0,0,1,zoe,001,2022-04-08_12h59.52.097,Digit Span Task,2021.2.3,Win32,40,,,,,,,,,,,,,,,,,,,,,
,,,,,,1,0,1,0,1,zoe,001,2022-04-08_12h59.52.097,Digit Span Task,2021.2.3,Win32,40,,,,,,,,,,,,,,,,,,,,,
,,,,,,2,0,2,0,1,zoe,001,2022-04-08_12h59.52.097,Digit Span Task,2021.2.3,Win32,40,,,,,,,,,,,,,,,,,,,,,
,,,,,,3,0,3,0,1,zoe,001,2022-04-08_12h59.52.097,Digit Span Task,2021.2.3,Win32,40,,,,,,,,,,,,,,,,,,,,,
,,,,,,4,0,4,0,1,zoe,001,2022-04-08_12h59.52.097,Digit Span Task,2021.2.3,Win32,40,,,,,,,,,,,,,,,,,,,,,
,,,,,,5,0,5,0,1,zoe,001,2022-04-08_12h59.52.097,Digit Span Task,2021.2.3,Win32,40,,,,,,,,,,,,,,,,,,,,,
,,,,,,6,0,6,0,1,zoe,001,2022-04-08_12h59.52.097,Digit Span Task,2021.2.3,Win32,40,,,,,,,,,,,,,,,,,,,,,
,,,,,,,,,,,zoe,001,2022-04-08_12h59.52.097,Digit Span Task,2021.2.3,Win32,40,8875085,1,-0.083333333,-0.408854167,1,0,0,cont_button,0,2,2,2,1,7,8875085,,,,,,
,,,,,,,,,,,zoe,001,2022-04-08_12h59.52.097,Digit Span Task,2021.2.3,Win32,40,,,,,,,,,,,,,,,,0,4,4,4,1,seven.xlsx
,,,,,,0,0,0,0,1,zoe,001,2022-04-08_12h59.52.097,Digit Span Task,2021.2.3,Win32,40,,,,,,,,,,,,,,,,,,,,,
,,,,,,1,0,1,0,1,zoe,001,2022-04-08_12h59.52.097,Digit Span Task,2021.2.3,Win32,40,,,,,,,,,,,,,,,,,,,,,
,,,,,,2,0,2,0,1,zoe,001,2022-04-08_12h59.52.097,Digit Span Task,2021.2.3,Win32,40,,,,,,,,,,,,,,,,,,,,,
,,,,,,3,0,3,0,1,zoe,001,2022-04-08_12h59.52.097,Digit Span Task,2021.2.3,Win32,40,,,,,,,,,,,,,,,,,,,,,
,,,,,,4,0,4,0,1,zoe,001,2022-04-08_12h59.52.097,Digit Span Task,2021.2.3,Win32,40,,,,,,,,,,,,,,,,,,,,,
,,,,,,5,0,5,0,1,zoe,001,2022-04-08_12h59.52.097,Digit Span Task,2021.2.3,Win32,40,,,,,,,,,,,,,,,,,,,,,
,,,,,,6,0,6,0,1,zoe,001,2022-04-08_12h59.52.097,Digit Span Task,2021.2.3,Win32,40,,,,,,,,,,,,,,,,,,,,,
,,,,,,7,0,7,0,1,zoe,001,2022-04-08_12h59.52.097,Digit Span Task,2021.2.3,Win32,40,,,,,,,,,,,,,,,,,,,,,
,,,,,,,,,,,zoe,001,2022-04-08_12h59.52.097,Digit Span Task,2021.2.3,Win32,40,"46229408
",0,-0.083333333,-0.408854167,1,0,0,cont_button,0,0,0,0,1,8,46229408,,,,,,
,,,,,,0,0,0,0,1,zoe,001,2022-04-08_12h59.52.097,Digit Span Task,2021.2.3,Win32,40,,,,,,,,,,,,,,,,,,,,,
,,,,,,1,0,1,0,1,zoe,001,2022-04-08_12h59.52.097,Digit Span Task,2021.2.3,Win32,40,,,,,,,,,,,,,,,,,,,,,
,,,,,,2,0,2,0,1,zoe,001,2022-04-08_12h59.52.097,Digit Span Task,2021.2.3,Win32,40,,,,,,,,,,,,,,,,,,,,,
,,,,,,3,0,3,0,1,zoe,001,2022-04-08_12h59.52.097,Digit Span Task,2021.2.3,Win32,40,,,,,,,,,,,,,,,,,,,,,
,,,,,,4,0,4,0,1,zoe,001,2022-04-08_12h59.52.097,Digit Span Task,2021.2.3,Win32,40,,,,,,,,,,,,,,,,,,,,,
,,,,,,5,0,5,0,1,zoe,001,2022-04-08_12h59.52.097,Digit Span Task,2021.2.3,Win32,40,,,,,,,,,,,,,,,,,,,,,
,,,,,,6,0,6,0,1,zoe,001,2022-04-08_12h59.52.097,Digit Span Task,2021.2.3,Win32,40,,,,,,,,,,,,,,,,,,,,,
,,,,,,7,0,7,0,1,zoe,001,2022-04-08_12h59.52.097,Digit Span Task,2021.2.3,Win32,40,,,,,,,,,,,,,,,,,,,,,
,,,,,,,,,,,zoe,001,2022-04-08_12h59.52.097,Digit Span Task,2021.2.3,Win32,40,70967882,1,-0.083333333,-0.408854167,1,0,0,cont_button,0,1,1,1,1,8,70967882,,,,,,
,,,,,,0,0,0,0,1,zoe,001,2022-04-08_12h59.52.097,Digit Span Task,2021.2.3,Win32,40,,,,,,,,,,,,,,,,,,,,,
,,,,,,1,0,1,0,1,zoe,001,2022-04-08_12h59.52.097,Digit Span Task,2021.2.3,Win32,40,,,,,,,,,,,,,,,,,,,,,
,,,,,,2,0,2,0,1,zoe,001,2022-04-08_12h59.52.097,Digit Span Task,2021.2.3,Win32,40,,,,,,,,,,,,,,,,,,,,,
,,,,,,3,0,3,0,1,zoe,001,2022-04-08_12h59.52.097,Digit Span Task,2021.2.3,Win32,40,,,,,,,,,,,,,,,,,,,,,
,,,,,,4,0,4,0,1,zoe,001,2022-04-08_12h59.52.097,Digit Span Task,2021.2.3,Win32,40,,,,,,,,,,,,,,,,,,,,,
,,,,,,5,0,5,0,1,zoe,001,2022-04-08_12h59.52.097,Digit Span Task,2021.2.3,Win32,40,,,,,,,,,,,,,,,,,,,,,
,,,,,,6,0,6,0,1,zoe,001,2022-04-08_12h59.52.097,Digit Span Task,2021.2.3,Win32,40,,,,,,,,,,,,,,,,,,,,,
,,,,,,7,0,7,0,1,zoe,001,2022-04-08_12h59.52.097,Digit Span Task,2021.2.3,Win32,40,,,,,,,,,,,,,,,,,,,,,
,,,,,,,,,,,zoe,001,2022-04-08_12h59.52.097,Digit Span Task,2021.2.3,Win32,40,27139320,1,-0.083333333,-0.408854167,1,0,0,cont_button,0,2,2,2,1,8,27139320,,,,,,
,,,,,,,,,,,zoe,001,2022-04-08_12h59.52.097,Digit Span Task,2021.2.3,Win32,40,,,,,,,,,,,,,,,,0,5,5,5,1,eight.xlsx
,,,,,,0,0,0,0,1,zoe,001,2022-04-08_12h59.52.097,Digit Span Task,2021.2.3,Win32,40,,,,,,,,,,,,,,,,,,,,,
,,,,,,1,0,1,0,1,zoe,001,2022-04-08_12h59.52.097,Digit Span Task,2021.2.3,Win32,40,,,,,,,,,,,,,,,,,,,,,
,,,,,,2,0,2,0,1,zoe,001,2022-04-08_12h59.52.097,Digit Span Task,2021.2.3,Win32,40,,,,,,,,,,,,,,,,,,,,,
,,,,,,3,0,3,0,1,zoe,001,2022-04-08_12h59.52.097,Digit Span Task,2021.2.3,Win32,40,,,,,,,,,,,,,,,,,,,,,
,,,,,,4,0,4,0,1,zoe,001,2022-04-08_12h59.52.097,Digit Span Task,2021.2.3,Win32,40,,,,,,,,,,,,,,,,,,,,,
,,,,,,5,0,5,0,1,zoe,001,2022-04-08_12h59.52.097,Digit Span Task,2021.2.3,Win32,40,,,,,,,,,,,,,,,,,,,,,
,,,,,,6,0,6,0,1,zoe,001,2022-04-08_12h59.52.097,Digit Span Task,2021.2.3,Win32,40,,,,,,,,,,,,,,,,,,,,,
,,,,,,7,0,7,0,1,zoe,001,2022-04-08_12h59.52.097,Digit Span Task,2021.2.3,Win32,40,,,,,,,,,,,,,,,,,,,,,
,,,,,,8,0,8,0,1,zoe,001,2022-04-08_12h59.52.097,Digit Span Task,2021.2.3,Win32,40,,,,,,,,,,,,,,,,,,,,,
,,,,,,,,,,,zoe,001,2022-04-08_12h59.52.097,Digit Span Task,2021.2.3,Win32,40,368373442,1,-0.065104167,-0.404947917,1,0,0,cont_button,0,0,0,0,1,9,368373442,,,,,,
,,,,,,0,0,0,0,1,zoe,001,2022-04-08_12h59.52.097,Digit Span Task,2021.2.3,Win32,40,,,,,,,,,,,,,,,,,,,,,
,,,,,,1,0,1,0,1,zoe,001,2022-04-08_12h59.52.097,Digit Span Task,2021.2.3,Win32,40,,,,,,,,,,,,,,,,,,,,,
,,,,,,2,0,2,0,1,zoe,001,2022-04-08_12h59.52.097,Digit Span Task,2021.2.3,Win32,40,,,,,,,,,,,,,,,,,,,,,
,,,,,,3,0,3,0,1,zoe,001,2022-04-08_12h59.52.097,Digit Span Task,2021.2.3,Win32,40,,,,,,,,,,,,,,,,,,,,,
,,,,,,4,0,4,0,1,zoe,001,2022-04-08_12h59.52.097,Digit Span Task,2021.2.3,Win32,40,,,,,,,,,,,,,,,,,,,,,
,,,,,,5,0,5,0,1,zoe,001,2022-04-08_12h59.52.097,Digit Span Task,2021.2.3,Win32,40,,,,,,,,,,,,,,,,,,,,,
,,,,,,6,0,6,0,1,zoe,001,2022-04-08_12h59.52.097,Digit Span Task,2021.2.3,Win32,40,,,,,,,,,,,,,,,,,,,,,
,,,,,,7,0,7,0,1,zoe,001,2022-04-08_12h59.52.097,Digit Span Task,2021.2.3,Win32,40,,,,,,,,,,,,,,,,,,,,,
,,,,,,8,0,8,0,1,zoe,001,2022-04-08_12h59.52.097,Digit Span Task,2021.2.3,Win32,40,,,,,,,,,,,,,,,,,,,,,
,,,,,,,,,,,zoe,001,2022-04-08_12h59.52.097,Digit Span Task,2021.2.3,Win32,40,576270919,1,-0.065104167,-0.404947917,1,0,0,cont_button,0,1,1,1,1,9,576270919,,,,,,
,,,,,,0,0,0,0,1,zoe,001,2022-04-08_12h59.52.097,Digit Span Task,2021.2.3,Win32,40,,,,,,,,,,,,,,,,,,,,,
,,,,,,1,0,1,0,1,zoe,001,2022-04-08_12h59.52.097,Digit Span Task,2021.2.3,Win32,40,,,,,,,,,,,,,,,,,,,,,
,,,,,,2,0,2,0,1,zoe,001,2022-04-08_12h59.52.097,Digit Span Task,2021.2.3,Win32,40,,,,,,,,,,,,,,,,,,,,,
,,,,,,3,0,3,0,1,zoe,001,2022-04-08_12h59.52.097,Digit Span Task,2021.2.3,Win32,40,,,,,,,,,,,,,,,,,,,,,
,,,,,,4,0,4,0,1,zoe,001,2022-04-08_12h59.52.097,Digit Span Task,2021.2.3,Win32,40,,,,,,,,,,,,,,,,,,,,,
,,,,,,5,0,5,0,1,zoe,001,2022-04-08_12h59.52.097,Digit Span Task,2021.2.3,Win32,40,,,,,,,,,,,,,,,,,,,,,
,,,,,,6,0,6,0,1,zoe,001,2022-04-08_12h59.52.097,Digit Span Task,2021.2.3,Win32,40,,,,,,,,,,,,,,,,,,,,,
